SpectraSuite Data File
++++++++++++++++++++++++++++++++++++
Date: Wed Jan 02 14:00:38 EST 2013
User: James
Dark Spectrum Present: No
Reference Spectrum Present: No
Number of Sampled Component Spectra: 1
Spectrometers: USB4C01400
Integration Time (usec): 100000 (USB4C01400)
Spectra Averaged: 1 (USB4C01400)
Boxcar Smoothing: 0 (USB4C01400)
Correct for Electrical Dark: No (USB4C01400)
Strobe/Lamp Enabled: No (USB4C01400)
Correct for Detector Non-linearity: No (USB4C01400)
Correct for Stray Light: No (USB4C01400)
Number of Pixels in Processed Spectrum: 3648
>>>>>Begin Processed Spectral Data<<<<<
345.93	1122.29
346.15	1122.29
346.36	1122.29
346.58	1148.91
346.79	1105.90
347.01	1314.80
347.22	1322.99
347.44	1206.25
347.65	1204.21
347.87	1277.93
348.08	1253.36
348.30	1282.03
348.51	1228.78
348.73	1349.61
348.94	1265.64
349.16	1378.28
349.37	1294.32
349.58	1255.40
349.80	1322.99
350.01	1234.93
350.23	1224.69
350.44	1259.50
350.66	1322.99
350.87	1284.08
351.09	1361.90
351.30	1193.97
351.52	1243.12
351.73	1310.70
351.95	1230.83
352.16	1312.75
352.38	1251.31
352.59	1341.42
352.80	1255.40
353.02	1265.64
353.23	1314.80
353.45	1210.35
353.66	1304.56
353.88	1417.19
354.09	1402.86
354.31	1284.08
354.52	1300.46
354.73	1439.72
354.95	1269.74
355.16	1372.14
355.38	1277.93
355.59	1206.25
355.81	1388.52
356.02	1300.46
356.24	1261.55
356.45	1316.84
356.66	1343.47
356.88	1228.78
357.09	1296.36
357.31	1284.08
357.52	1273.84
357.74	1271.79
357.95	1329.13
358.17	1349.61
358.38	1226.73
358.59	1378.28
358.81	1333.23
359.02	1284.08
359.24	1202.16
359.45	1269.74
359.66	1263.60
359.88	1224.69
360.09	1275.88
360.31	1228.78
360.52	1361.90
360.74	1351.66
360.95	1339.37
361.16	1265.64
361.38	1333.23
361.59	1290.22
361.81	1300.46
362.02	1343.47
362.23	1353.71
362.45	1265.64
362.66	1261.55
362.88	1218.54
363.09	1302.51
363.31	1269.74
363.52	1392.62
363.73	1343.47
363.95	1396.71
364.16	1345.52
364.38	1226.73
364.59	1284.08
364.80	1267.69
365.02	1261.55
365.23	1226.73
365.45	1236.97
365.66	1320.94
365.87	1308.65
366.09	1292.27
366.30	1388.52
366.51	1284.08
366.73	1322.99
366.94	1269.74
367.16	1230.83
367.37	1339.37
367.58	1355.76
367.80	1546.22
368.01	1490.92
368.23	1540.07
368.44	1679.33
368.65	1687.53
368.87	1761.25
369.08	1535.98
369.29	1423.34
369.51	1462.25
369.72	1409.00
369.94	1435.63
370.15	1292.27
370.36	1329.13
370.58	1361.90
370.79	1322.99
371.00	1304.56
371.22	1218.54
371.43	1286.12
371.64	1376.24
371.86	1157.10
372.07	1353.71
372.29	1253.36
372.50	1374.19
372.71	1251.31
372.93	1308.65
373.14	1222.64
373.35	1218.54
373.57	1331.18
373.78	1222.64
373.99	1325.04
374.21	1331.18
374.42	1290.22
374.63	1253.36
374.85	1222.64
375.06	1263.60
375.27	1277.93
375.49	1341.42
375.70	1333.23
375.91	1298.41
376.13	1259.50
376.34	1390.57
376.55	1314.80
376.77	1251.31
376.98	1214.45
377.19	1382.38
377.41	1351.66
377.62	1363.95
377.83	1284.08
378.05	1249.26
378.26	1382.38
378.47	1253.36
378.69	1275.88
378.90	1314.80
379.11	1275.88
379.33	1378.28
379.54	1253.36
379.75	1271.79
379.97	1290.22
380.18	1402.86
380.39	1294.32
380.61	1363.95
380.82	1261.55
381.03	1284.08
381.25	1335.28
381.46	1292.27
381.67	1329.13
381.89	1310.70
382.10	1339.37
382.31	1253.36
382.52	1210.35
382.74	1318.89
382.95	1349.61
383.16	1292.27
383.38	1374.19
383.59	1343.47
383.80	1269.74
384.02	1245.16
384.23	1392.62
384.44	1298.41
384.65	1337.32
384.87	1253.36
385.08	1267.69
385.29	1343.47
385.51	1259.50
385.72	1314.80
385.93	1302.51
386.14	1339.37
386.36	1468.39
386.57	1318.89
386.78	1290.22
387.00	1333.23
387.21	1279.98
387.42	1306.60
387.63	1218.54
387.85	1347.56
388.06	1304.56
388.27	1335.28
388.49	1267.69
388.70	1308.65
388.91	1286.12
389.12	1300.46
389.34	1343.47
389.55	1318.89
389.76	1271.79
389.97	1327.08
390.19	1230.83
390.40	1331.18
390.61	1349.61
390.82	1275.88
391.04	1292.27
391.25	1337.32
391.46	1265.64
391.68	1253.36
391.89	1314.80
392.10	1271.79
392.31	1273.84
392.53	1294.32
392.74	1312.75
392.95	1316.84
393.16	1257.45
393.38	1347.56
393.59	1234.93
393.80	1310.70
394.01	1372.14
394.23	1322.99
394.44	1306.60
394.65	1298.41
394.86	1265.64
395.07	1316.84
395.29	1386.47
395.50	1343.47
395.71	1331.18
395.92	1279.98
396.14	1243.12
396.35	1322.99
396.56	1253.36
396.77	1306.60
396.99	1261.55
397.20	1320.94
397.41	1353.71
397.62	1310.70
397.83	1316.84
398.05	1341.42
398.26	1257.45
398.47	1333.23
398.68	1265.64
398.90	1282.03
399.11	1232.88
399.32	1325.04
399.53	1337.32
399.74	1449.96
399.96	1236.97
400.17	1347.56
400.38	1275.88
400.59	1294.32
400.81	1265.64
401.02	1314.80
401.23	1251.31
401.44	1366.00
401.65	1259.50
401.87	1318.89
402.08	1392.62
402.29	1298.41
402.50	1378.28
402.71	1337.32
402.93	1300.46
403.14	1255.40
403.35	1245.16
403.56	1333.23
403.77	1273.84
403.99	1292.27
404.20	1331.18
404.41	1333.23
404.62	1302.51
404.83	1349.61
405.04	1341.42
405.26	1308.65
405.47	1322.99
405.68	1329.13
405.89	1243.12
406.10	1349.61
406.32	1347.56
406.53	1417.19
406.74	1335.28
406.95	1417.19
407.16	1939.43
407.37	2863.06
407.59	3346.38
407.80	3915.72
408.01	3958.72
408.22	3950.53
408.43	3086.29
408.64	2312.16
408.86	1755.11
409.07	1474.54
409.28	1259.50
409.49	1343.47
409.70	1402.86
409.91	1347.56
410.13	1335.28
410.34	1284.08
410.55	1515.50
410.76	1529.83
410.97	1538.02
411.18	1505.26
411.40	1486.83
411.61	1507.30
411.82	1484.78
412.03	1333.23
412.24	1284.08
412.45	1318.89
412.66	1339.37
412.88	1253.36
413.09	1370.09
413.30	1339.37
413.51	1329.13
413.72	1343.47
413.93	1368.04
414.14	1370.09
414.36	1302.51
414.57	1234.93
414.78	1368.04
414.99	1392.62
415.20	1261.55
415.41	1353.71
415.62	1318.89
415.83	1296.36
416.05	1286.12
416.26	1318.89
416.47	1216.49
416.68	1298.41
416.89	1359.85
417.10	1368.04
417.31	1337.32
417.52	1398.76
417.74	1286.12
417.95	1347.56
418.16	1374.19
418.37	1296.36
418.58	1427.43
418.79	1261.55
419.00	1331.18
419.21	1337.32
419.42	1308.65
419.64	1384.43
419.85	1271.79
420.06	1314.80
420.27	1298.41
420.48	1312.75
420.69	1300.46
420.90	1406.95
421.11	1366.00
421.32	1333.23
421.53	1286.12
421.75	1284.08
421.96	1355.76
422.17	1382.38
422.38	1411.05
422.59	1320.94
422.80	1327.08
423.01	1370.09
423.22	1333.23
423.43	1316.84
423.64	1345.52
423.85	1277.93
424.07	1329.13
424.28	1470.44
424.49	1320.94
424.70	1431.53
424.91	1396.71
425.12	1415.15
425.33	1351.66
425.54	1343.47
425.75	1304.56
425.96	1331.18
426.17	1388.52
426.38	1390.57
426.59	1339.37
426.81	1347.56
427.02	1284.08
427.23	1308.65
427.44	1265.64
427.65	1267.69
427.86	1273.84
428.07	1441.77
428.28	1263.60
428.49	1308.65
428.70	1374.19
428.91	1288.17
429.12	1320.94
429.33	1368.04
429.54	1263.60
429.75	1273.84
429.96	1411.05
430.17	1296.36
430.38	1279.98
430.60	1337.32
430.81	1357.80
431.02	1343.47
431.23	1245.16
431.44	1255.40
431.65	1241.07
431.86	1388.52
432.07	1386.47
432.28	1368.04
432.49	1374.19
432.70	1523.69
432.91	1392.62
433.12	1357.80
433.33	1388.52
433.54	1415.15
433.75	1384.43
433.96	1302.51
434.17	1396.71
434.38	1337.32
434.59	1394.67
434.80	1343.47
435.01	1368.04
435.22	1388.52
435.43	1288.17
435.64	1347.56
435.85	1439.72
436.06	1394.67
436.27	1433.58
436.48	1372.14
436.69	1472.49
436.90	1376.24
437.11	1345.52
437.32	1503.21
437.53	1583.08
437.74	1705.96
437.95	1765.35
438.16	2549.72
438.37	4825.01
438.58	9166.71
438.79	11405.14
439.00	12300.10
439.21	13031.23
439.42	13662.00
439.63	10739.55
439.84	6713.24
440.05	3682.25
440.26	2314.20
440.47	1728.49
440.68	1431.53
440.89	1519.59
441.10	1429.48
441.31	1406.95
441.52	1472.49
441.73	1306.60
441.94	1417.19
442.15	1402.86
442.36	1507.30
442.57	1327.08
442.78	1355.76
442.99	1316.84
443.20	1370.09
443.41	1308.65
443.62	1306.60
443.83	1341.42
444.04	1421.29
444.25	1402.86
444.46	1359.85
444.67	1413.10
444.88	1298.41
445.09	1300.46
445.30	1341.42
445.51	1337.32
445.72	1374.19
445.93	1409.00
446.14	1370.09
446.35	1251.31
446.56	1306.60
446.77	1337.32
446.98	1331.18
447.19	1284.08
447.39	1363.95
447.60	1361.90
447.81	1366.00
448.02	1417.19
448.23	1359.85
448.44	1497.07
448.65	1368.04
448.86	1265.64
449.07	1329.13
449.28	1286.12
449.49	1429.48
449.70	1400.81
449.91	1316.84
450.12	1386.47
450.33	1417.19
450.54	1347.56
450.75	1284.08
450.95	1298.41
451.16	1325.04
451.37	1300.46
451.58	1366.00
451.79	1343.47
452.00	1398.76
452.21	1333.23
452.42	1390.57
452.63	1363.95
452.84	1296.36
453.05	1361.90
453.26	1284.08
453.47	1341.42
453.68	1255.40
453.88	1404.91
454.09	1333.23
454.30	1380.33
454.51	1347.56
454.72	1269.74
454.93	1343.47
455.14	1325.04
455.35	1337.32
455.56	1265.64
455.77	1325.04
455.98	1359.85
456.18	1452.01
456.39	1347.56
456.60	1374.19
456.81	1255.40
457.02	1357.80
457.23	1314.80
457.44	1349.61
457.65	1306.60
457.86	1267.69
458.06	1497.07
458.27	1347.56
458.48	1353.71
458.69	1415.15
458.90	1406.95
459.11	1335.28
459.32	1429.48
459.53	1376.24
459.74	1325.04
459.94	1390.57
460.15	1284.08
460.36	1394.67
460.57	1310.70
460.78	1300.46
460.99	1335.28
461.20	1288.17
461.41	1415.15
461.61	1296.36
461.82	1376.24
462.03	1382.38
462.24	1374.19
462.45	1341.42
462.66	1353.71
462.87	1337.32
463.08	1308.65
463.28	1388.52
463.49	1361.90
463.70	1394.67
463.91	1363.95
464.12	1320.94
464.33	1290.22
464.54	1325.04
464.74	1288.17
464.95	1411.05
465.16	1394.67
465.37	1372.14
465.58	1288.17
465.79	1368.04
465.99	1347.56
466.20	1402.86
466.41	1411.05
466.62	1347.56
466.83	1302.51
467.04	1341.42
467.25	1351.66
467.45	1396.71
467.66	1292.27
467.87	1322.99
468.08	1400.81
468.29	1259.50
468.50	1388.52
468.70	1390.57
468.91	1423.34
469.12	1355.76
469.33	1343.47
469.54	1329.13
469.75	1380.33
469.95	1411.05
470.16	1335.28
470.37	1368.04
470.58	1347.56
470.79	1322.99
470.99	1347.56
471.20	1298.41
471.41	1382.38
471.62	1425.39
471.83	1327.08
472.03	1372.14
472.24	1335.28
472.45	1423.34
472.66	1372.14
472.87	1386.47
473.08	1357.80
473.28	1277.93
473.49	1357.80
473.70	1357.80
473.91	1345.52
474.12	1345.52
474.32	1425.39
474.53	1445.87
474.74	1466.35
474.95	1353.71
475.16	1392.62
475.36	1476.59
475.57	1363.95
475.78	1359.85
475.99	1400.81
476.19	1505.26
476.40	1460.20
476.61	1474.54
476.82	1431.53
477.03	1435.63
477.23	1458.15
477.44	1441.77
477.65	1425.39
477.86	1415.15
478.06	1419.24
478.27	1404.91
478.48	1359.85
478.69	1353.71
478.90	1351.66
479.10	1382.38
479.31	1374.19
479.52	1394.67
479.73	1415.15
479.93	1370.09
480.14	1490.92
480.35	1466.35
480.56	1372.14
480.76	1480.68
480.97	1384.43
481.18	1439.72
481.39	1400.81
481.59	1460.20
481.80	1343.47
482.01	1406.95
482.22	1435.63
482.42	1554.41
482.63	1449.96
482.84	1390.57
483.05	1597.42
483.25	1529.83
483.46	1546.22
483.67	1492.97
483.88	1533.93
484.08	1609.70
484.29	1597.42
484.50	1615.85
484.71	1662.95
484.91	1693.67
485.12	1753.06
485.33	1824.74
485.54	1824.74
485.74	1882.08
485.95	2060.26
486.16	2082.78
486.37	2066.40
486.57	2346.97
486.78	2238.43
486.99	2387.93
487.19	2611.16
487.40	2809.81
487.61	2856.92
487.82	2953.17
488.02	3057.62
488.23	3293.13
488.44	3397.58
488.64	3426.25
488.85	3620.81
489.06	3864.52
489.27	3934.15
489.47	4202.43
489.68	4292.54
489.89	4353.98
490.09	4304.83
490.30	4423.61
490.51	4511.68
490.71	4521.92
490.92	4489.15
491.13	4530.11
491.34	4327.36
491.54	4364.22
491.75	4286.40
491.96	4124.61
492.16	4140.99
492.37	3962.82
492.58	3903.43
492.78	3766.21
492.99	3872.71
493.20	3688.39
493.40	3622.86
493.61	3596.23
493.82	3606.47
494.03	3442.64
494.23	3657.67
494.44	3598.28
494.65	3438.54
494.85	3424.20
495.06	3463.12
495.27	3459.02
495.47	3342.28
495.68	3315.66
495.89	3317.71
496.09	3391.44
496.30	3289.04
496.51	3162.06
496.71	3121.10
496.92	3121.10
497.13	2936.79
497.33	3094.48
497.54	2818.00
497.75	2879.44
497.95	2975.70
498.16	2846.68
498.37	2725.85
498.57	2885.59
498.78	2721.75
498.98	2691.03
499.19	2535.39
499.40	2717.65
499.60	2660.31
499.81	2594.78
500.02	2516.95
500.22	2441.18
500.43	2607.06
500.64	2471.90
500.84	2478.04
501.05	2336.73
501.26	2320.35
501.46	2285.53
501.67	2277.34
501.87	2402.27
502.08	2131.94
502.29	2230.24
502.49	2246.62
502.70	2160.61
502.91	2136.03
503.11	2050.02
503.32	2056.16
503.52	2021.35
503.73	1974.24
503.94	2007.01
504.14	1914.85
504.35	1906.66
504.56	1939.43
504.76	1918.95
504.97	1832.93
505.17	1814.50
505.38	1755.11
505.59	1755.11
505.79	1669.09
506.00	1705.96
506.20	1630.18
506.41	1845.22
506.62	1769.44
506.82	1650.66
507.03	1660.90
507.23	1677.29
507.44	1697.77
507.65	1728.49
507.85	1589.22
508.06	1540.07
508.26	1540.07
508.47	1562.60
508.68	1589.22
508.88	1499.11
509.09	1538.02
509.29	1540.07
509.50	1568.74
509.71	1548.26
509.91	1566.70
510.12	1587.18
510.32	1447.91
510.53	1509.35
510.73	1546.22
510.94	1482.73
511.15	1431.53
511.35	1417.19
511.56	1499.11
511.76	1480.68
511.97	1402.86
512.18	1472.49
512.38	1464.30
512.59	1460.20
512.79	1466.35
513.00	1435.63
513.20	1488.87
513.41	1521.64
513.61	1441.77
513.82	1531.88
514.03	1482.73
514.23	1484.78
514.44	1472.49
514.64	1501.16
514.85	1378.28
515.05	1558.50
515.26	1449.96
515.46	1560.55
515.67	1402.86
515.88	1533.93
516.08	1439.72
516.29	1447.91
516.49	1460.20
516.70	1564.65
516.90	1505.26
517.11	1460.20
517.31	1525.74
517.52	1466.35
517.72	1447.91
517.93	1417.19
518.14	1497.07
518.34	1464.30
518.55	1386.47
518.75	1423.34
518.96	1415.15
519.16	1458.15
519.37	1447.91
519.57	1462.25
519.78	1464.30
519.98	1456.11
520.19	1458.15
520.39	1456.11
520.60	1587.18
520.80	1325.04
521.01	1452.01
521.21	1449.96
521.42	1558.50
521.62	1472.49
521.83	1415.15
522.03	1415.15
522.24	1419.24
522.44	1466.35
522.65	1392.62
522.85	1507.30
523.06	1531.88
523.26	1513.45
523.47	1417.19
523.67	1474.54
523.88	1546.22
524.08	1413.10
524.29	1437.67
524.49	1447.91
524.70	1466.35
524.90	1427.43
525.11	1411.05
525.31	1468.39
525.52	1357.80
525.72	1509.35
525.93	1427.43
526.13	1472.49
526.34	1439.72
526.54	1419.24
526.75	1484.78
526.95	1445.87
527.16	1513.45
527.36	1505.26
527.57	1419.24
527.77	1515.50
527.98	1435.63
528.18	1398.76
528.39	1415.15
528.59	1437.67
528.79	1423.34
529.00	1423.34
529.20	1515.50
529.41	1492.97
529.61	1542.12
529.82	1495.02
530.02	1482.73
530.23	1406.95
530.43	1437.67
530.64	1527.78
530.84	1499.11
531.05	1458.15
531.25	1521.64
531.45	1425.39
531.66	1523.69
531.86	1587.18
532.07	1568.74
532.27	1566.70
532.48	1458.15
532.68	1587.18
532.89	1581.03
533.09	1513.45
533.29	1445.87
533.50	1531.88
533.70	1492.97
533.91	1546.22
534.11	1642.47
534.32	1656.81
534.52	1634.28
534.72	1523.69
534.93	1529.83
535.13	1621.99
535.34	1691.62
535.54	1779.68
535.75	1718.25
535.95	1880.04
536.15	1785.83
536.36	2097.12
536.56	2043.87
536.77	2181.09
536.97	2162.66
537.18	2146.27
537.38	2226.14
537.58	2224.09
537.79	2154.46
537.99	2056.16
538.20	2029.54
538.40	1970.15
538.60	1923.04
538.81	2111.46
539.01	2105.31
539.22	2254.81
539.42	2260.96
539.62	2430.94
539.83	2576.34
540.03	2742.23
540.24	2891.73
540.44	3090.38
540.64	3274.70
540.85	3565.51
541.05	3676.10
541.26	4040.64
541.46	4249.54
541.66	4452.28
541.87	4685.75
542.07	5011.38
542.27	5212.08
542.48	5541.80
542.68	6184.87
542.89	6563.74
543.09	7421.84
543.29	8112.00
543.50	9287.54
543.70	10657.63
543.90	12232.52
544.11	14016.30
544.31	15685.39
544.52	17706.74
544.72	19125.98
544.92	20850.37
545.13	22036.14
545.33	22607.53
545.53	22769.32
545.74	22585.00
545.94	22494.89
546.14	21481.14
546.35	20573.89
546.55	19676.88
546.76	19011.29
546.96	18558.69
547.16	17911.53
547.37	17886.96
547.57	18026.22
547.77	18208.49
547.98	18231.02
548.18	19885.78
548.38	21393.08
548.59	24225.42
548.79	25765.49
548.99	27944.53
549.20	29783.61
549.40	32181.78
549.60	32683.53
549.81	32384.53
550.01	31917.59
550.21	29779.51
550.42	27381.34
550.62	24166.03
550.82	21216.96
551.03	18220.78
551.23	16348.93
551.43	15050.52
551.64	14108.46
551.84	13395.76
552.04	12926.78
552.25	12052.30
552.45	11628.37
552.65	10979.16
552.86	10524.51
553.06	9770.86
553.26	9504.62
553.46	8970.10
553.67	8505.21
553.87	8384.38
554.07	7921.54
554.28	7352.21
554.48	7260.05
554.68	6811.54
554.89	6442.91
555.09	6066.08
555.29	5932.97
555.50	5445.55
555.70	5259.18
555.90	5107.63
556.10	4960.18
556.31	4728.76
556.51	4339.65
556.71	4399.04
556.92	4224.96
557.12	3889.09
557.32	3891.14
557.52	3585.99
557.73	3585.99
557.93	3428.30
558.13	3381.20
558.34	3162.06
558.54	3008.47
558.74	2891.73
558.94	2721.75
559.15	2658.26
559.35	2586.58
559.55	2576.34
559.75	2516.95
559.96	2478.04
560.16	2361.31
560.36	2263.01
560.56	2392.03
560.77	2234.33
560.97	2277.34
561.17	2140.13
561.38	2078.69
561.58	2090.98
561.78	2136.03
561.98	2033.63
562.19	2004.96
562.39	2000.87
562.59	2056.16
562.79	1873.89
563.00	1996.77
563.20	1941.47
563.40	1896.42
563.60	1914.85
563.81	1849.32
564.01	1972.19
564.21	1863.65
564.41	1808.36
564.61	1855.46
564.82	1718.25
565.02	1839.08
565.22	1769.44
565.42	1849.32
565.63	1843.17
565.83	1753.06
566.03	1873.89
566.23	1791.97
566.44	1857.51
566.64	1751.01
566.84	1845.22
567.04	1816.55
567.24	1783.78
567.45	1775.59
567.65	1746.92
567.85	1712.10
568.05	1703.91
568.26	1736.68
568.46	1681.38
568.66	1714.15
568.86	1794.02
569.06	1708.01
569.27	1685.48
569.47	1667.05
569.67	1617.90
569.87	1624.04
570.07	1693.67
570.28	1638.38
570.48	1720.29
570.68	1648.61
570.88	1761.25
571.08	1746.92
571.29	1685.48
571.49	1669.09
571.69	1665.00
571.89	1753.06
572.09	1687.53
572.30	1683.43
572.50	1765.35
572.70	1722.34
572.90	1677.29
573.10	1624.04
573.30	1726.44
573.51	1648.61
573.71	1595.37
573.91	1687.53
574.11	1595.37
574.31	1591.27
574.51	1626.09
574.72	1535.98
574.92	1531.88
575.12	1564.65
575.32	1583.08
575.52	1558.50
575.72	1554.41
575.93	1550.31
576.13	1595.37
576.33	1495.02
576.53	1599.46
576.73	1546.22
576.93	1525.74
577.14	1544.17
577.34	1613.80
577.54	1550.31
577.74	1525.74
577.94	1552.36
578.14	1708.01
578.35	1628.14
578.55	1746.92
578.75	1806.31
578.95	2037.73
579.15	2379.74
579.35	2875.35
579.55	3293.13
579.75	3655.62
579.96	4149.18
580.16	4577.21
580.36	5126.07
580.56	5367.73
580.76	5433.26
580.96	5220.27
581.16	5308.34
581.37	5355.44
581.57	5095.35
581.77	4945.84
581.97	4784.06
582.17	4964.28
582.37	5412.78
582.57	5550.00
582.77	5871.53
582.97	5975.97
583.18	6068.13
583.38	5777.32
583.58	5613.48
583.78	5320.62
583.98	5124.02
584.18	5113.78
584.38	4956.08
584.58	4843.45
584.78	4845.49
584.99	4806.58
585.19	4745.14
585.39	4753.34
585.59	4814.77
585.79	5003.19
585.99	5152.69
586.19	5345.20
586.39	5547.95
586.59	5693.35
586.79	5666.73
587.00	5715.88
587.20	5797.80
587.40	5742.50
587.60	5750.70
587.80	5654.44
588.00	5400.49
588.20	5351.34
588.40	5496.75
588.60	5433.26
588.80	5263.28
589.00	5240.75
589.20	5418.93
589.40	5662.63
589.61	5912.49
589.81	6438.81
590.01	6764.44
590.21	7100.31
590.41	7632.78
590.61	8296.32
590.81	8316.80
591.01	8552.32
591.21	8576.89
591.41	8259.46
591.61	7944.07
591.81	7116.69
592.01	6408.09
592.21	5791.66
592.41	5150.64
592.61	4794.29
592.81	4464.57
593.02	4138.94
593.22	4138.94
593.42	4050.88
593.62	4044.74
593.82	3989.44
594.02	4087.75
594.22	4204.48
594.42	4339.65
594.62	4554.68
594.82	4708.28
595.02	5101.49
595.22	5412.78
595.42	5953.45
595.62	6328.22
595.82	6586.27
596.02	7180.18
596.22	7413.65
596.42	7698.31
596.62	7823.24
596.82	7847.82
597.02	7790.47
597.22	7669.64
597.42	7200.66
597.62	6492.06
597.82	6113.19
598.02	5488.56
598.22	5164.98
598.42	4569.02
598.62	4298.69
598.82	4093.89
599.02	3928.00
599.22	3850.18
599.42	3651.53
599.62	3725.26
599.82	3706.82
600.02	3784.65
600.22	3780.55
600.42	3657.67
600.62	3633.10
600.82	3772.36
601.02	3848.13
601.22	3907.52
601.42	4161.47
601.62	4368.32
601.82	4579.26
602.02	4966.32
602.22	5152.69
602.42	5359.53
602.62	5570.48
602.82	5683.11
603.02	5832.62
603.22	5998.50
603.42	5748.65
603.62	5681.07
603.82	5640.11
604.02	5199.79
604.22	4980.66
604.42	4739.00
604.62	4329.41
604.82	4097.99
605.02	3913.67
605.22	3717.06
605.42	3334.09
605.62	3256.27
605.82	3250.13
606.02	3180.50
606.22	2836.44
606.42	2973.65
606.62	3004.37
606.82	2930.64
607.01	2996.18
607.21	2951.12
607.41	3049.43
607.61	3039.19
607.81	3024.85
608.01	3065.81
608.21	3205.07
608.41	3114.96
608.61	3160.02
608.81	3286.99
609.01	3319.76
609.21	3315.66
609.41	3534.79
609.61	3704.78
609.81	3841.99
610.01	3934.15
610.21	3907.52
610.40	4124.61
610.60	4374.46
610.80	4378.56
611.00	4693.94
611.20	4829.11
611.40	5210.03
611.60	5543.85
611.80	5975.97
612.00	6657.95
612.20	7307.15
612.40	8204.16
612.60	9723.76
612.79	11188.05
612.99	13756.21
613.19	17004.28
613.39	21765.81
613.59	26723.94
613.79	32630.29
613.99	38915.50
614.19	44117.34
614.39	49560.84
614.59	54299.84
614.79	57910.41
614.98	58967.16
615.18	59456.63
615.38	57992.33
615.58	54625.47
615.78	49982.73
615.98	45196.62
616.18	39779.74
616.38	34690.54
616.58	30608.94
616.77	27287.14
616.97	24788.61
617.17	23631.51
617.37	21989.04
617.57	21266.11
617.77	20033.23
617.97	18992.86
618.17	18392.81
618.36	17221.37
618.56	16152.33
618.76	15169.30
618.96	14065.45
619.16	12885.82
619.36	11888.46
619.56	10846.04
619.75	9883.50
619.95	9054.07
620.15	8271.75
620.35	7589.77
620.55	7073.68
620.75	6322.08
620.95	6145.95
621.14	5681.07
621.34	5453.74
621.54	5306.29
621.74	5164.98
621.94	4988.85
622.14	4710.33
622.34	4591.55
622.53	4571.07
622.73	4530.11
622.93	4491.20
623.13	4550.59
623.33	4452.28
623.53	4356.03
623.72	4530.11
623.92	4636.60
624.12	4581.31
624.32	4569.02
624.52	4673.46
624.72	4646.84
624.91	4636.60
625.11	4622.27
625.31	4816.82
625.51	4765.62
625.71	4720.57
625.91	4818.87
626.10	4917.17
626.30	4835.25
626.50	4980.66
626.70	5107.63
626.90	5316.53
627.09	5212.08
627.29	5234.61
627.49	5304.24
627.69	5205.94
627.89	5377.97
628.08	5490.60
628.28	5547.95
628.48	5584.81
628.68	5599.15
628.88	5461.93
629.07	5504.94
629.27	5580.71
629.47	5478.32
629.67	5564.33
629.87	5519.28
630.06	5429.17
630.26	5685.16
630.46	5498.80
630.66	5490.60
630.86	5523.37
631.05	5306.29
631.25	5339.05
631.45	5234.61
631.65	5117.87
631.84	5162.93
632.04	5173.17
632.24	5060.53
632.44	5183.41
632.64	5289.90
632.83	5711.78
633.03	5949.35
633.23	6219.68
633.43	6498.20
633.62	7079.83
633.82	7530.38
634.02	7972.74
634.22	8232.83
634.41	8302.47
634.61	8263.55
634.81	8351.62
635.01	8042.37
635.20	7640.97
635.40	6952.85
635.60	6406.05
635.80	5570.48
635.99	5072.82
636.19	4339.65
636.39	3897.28
636.59	3362.76
636.78	3213.26
636.98	2846.68
637.18	2725.85
637.38	2525.15
637.57	2439.13
637.77	2385.88
637.97	2226.14
638.17	2357.21
638.36	2279.39
638.56	2240.48
638.76	2162.66
638.96	2271.20
639.15	2203.61
639.35	2187.23
639.55	2095.07
639.74	2082.78
639.94	2009.06
640.14	2066.40
640.34	2078.69
640.53	2119.65
640.73	2129.89
640.93	2021.35
641.12	1931.23
641.32	1984.48
641.52	1966.05
641.72	1998.82
641.91	1890.28
642.11	1980.39
642.31	1978.34
642.50	1869.80
642.70	1875.94
642.90	1859.56
643.09	1933.28
643.29	1871.84
643.49	1886.18
643.69	1884.13
643.88	1832.93
644.08	1869.80
644.28	1880.04
644.47	1875.94
644.67	1880.04
644.87	1753.06
645.06	1943.52
645.26	1976.29
645.46	1888.23
645.65	1834.98
645.85	1820.64
646.05	1898.47
646.24	1894.37
646.44	1863.65
646.64	1916.90
646.83	1945.57
647.03	1816.55
647.23	1898.47
647.42	1914.85
647.62	1894.37
647.82	1937.38
648.01	1867.75
648.21	1941.47
648.41	1861.60
648.60	1824.74
648.80	1906.66
649.00	1947.62
649.19	1910.75
649.39	1890.28
649.59	1884.13
649.78	1886.18
649.98	1791.97
650.18	1880.04
650.37	1927.14
650.57	1847.27
650.76	1953.76
650.96	1916.90
651.16	1839.08
651.35	1951.71
651.55	1873.89
651.75	2021.35
651.94	1884.13
652.14	2015.20
652.34	2025.44
652.53	2228.19
652.73	2357.21
652.92	2463.71
653.12	2602.97
653.32	2805.72
653.51	2947.03
653.71	3014.61
653.91	3157.97
654.10	3364.81
654.30	3293.13
654.49	3264.46
654.69	3280.85
654.89	3082.19
655.08	3000.27
655.28	2834.39
655.47	2664.41
655.67	2652.12
655.87	2562.01
656.06	2408.41
656.26	2488.28
656.45	2299.87
656.65	2318.30
656.85	2385.88
657.04	2449.37
657.24	2220.00
657.43	2293.72
657.63	2095.07
657.83	2133.98
658.02	2136.03
658.22	2027.49
658.41	2037.73
658.61	1964.00
658.81	1896.42
659.00	1910.75
659.20	1953.76
659.39	1925.09
659.59	1941.47
659.78	1961.95
659.98	1953.76
660.18	1927.14
660.37	1986.53
660.57	2011.11
660.76	1908.71
660.96	2076.64
661.15	1968.10
661.35	2068.45
661.54	2035.68
661.74	1955.81
661.94	2146.27
662.13	1896.42
662.33	1857.51
662.52	1865.70
662.72	1845.22
662.91	1818.60
663.11	1796.07
663.30	1708.01
663.50	1742.82
663.70	1736.68
663.89	1740.77
664.09	1759.21
664.28	1867.75
664.48	1949.67
664.67	1982.43
664.87	2029.54
665.06	2162.66
665.26	2240.48
665.45	2220.00
665.65	2408.41
665.84	2467.80
666.04	2568.15
666.24	2521.05
666.43	2410.46
666.63	2400.22
666.82	2441.18
667.02	2383.84
667.21	2195.42
667.41	2172.89
667.60	2070.50
667.80	1976.29
667.99	1988.58
668.19	1828.84
668.38	1916.90
668.58	1832.93
668.77	1767.40
668.97	1777.64
669.16	1728.49
669.36	1796.07
669.55	1783.78
669.75	1800.16
669.94	1992.67
670.14	1712.10
670.33	1660.90
670.53	1685.48
670.72	1669.09
670.92	1783.78
671.11	1619.94
671.31	1726.44
671.50	1722.34
671.70	1636.33
671.89	1712.10
672.09	1712.10
672.28	1683.43
672.48	1591.27
672.67	1636.33
672.87	1683.43
673.06	1677.29
673.26	1802.21
673.45	1585.13
673.64	1679.33
673.84	1683.43
674.03	1554.41
674.23	1691.62
674.42	1644.52
674.62	1648.61
674.81	1660.90
675.01	1615.85
675.20	1535.98
675.40	1570.79
675.59	1619.94
675.79	1470.44
675.98	1615.85
676.17	1644.52
676.37	1595.37
676.56	1621.99
676.76	1662.95
676.95	1542.12
677.15	1554.41
677.34	1603.56
677.54	1644.52
677.73	1570.79
677.92	1617.90
678.12	1591.27
678.31	1632.23
678.51	1568.74
678.70	1527.78
678.90	1554.41
679.09	1601.51
679.28	1517.54
679.48	1558.50
679.67	1529.83
679.87	1540.07
680.06	1593.32
680.26	1540.07
680.45	1576.94
680.64	1507.30
680.84	1523.69
681.03	1669.09
681.23	1591.27
681.42	1562.60
681.61	1583.08
681.81	1540.07
682.00	1599.46
682.20	1615.85
682.39	1560.55
682.59	1552.36
682.78	1644.52
682.97	1546.22
683.17	1597.42
683.36	1667.05
683.56	1652.71
683.75	1699.81
683.94	1654.76
684.14	1650.66
684.33	1667.05
684.52	1718.25
684.72	1468.39
684.91	1673.19
685.11	1617.90
685.30	1585.13
685.49	1570.79
685.69	1671.14
685.88	1554.41
686.08	1523.69
686.27	1554.41
686.46	1626.09
686.66	1634.28
686.85	1628.14
687.04	1566.70
687.24	1558.50
687.43	1509.35
687.62	1644.52
687.82	1523.69
688.01	1617.90
688.21	1574.89
688.40	1583.08
688.59	1628.14
688.79	1593.32
688.98	1658.85
689.17	1626.09
689.37	1783.78
689.56	1769.44
689.75	1834.98
689.95	2013.15
690.14	1978.34
690.33	2203.61
690.53	2201.57
690.72	2263.01
690.91	2318.30
691.11	2203.61
691.30	2260.96
691.49	2336.73
691.69	2246.62
691.88	2152.42
692.07	2117.60
692.27	2123.74
692.46	2000.87
692.65	1861.60
692.85	1890.28
693.04	1783.78
693.23	1800.16
693.43	1703.91
693.62	1603.56
693.81	1736.68
694.01	1595.37
694.20	1583.08
694.39	1581.03
694.59	1554.41
694.78	1603.56
694.97	1525.74
695.17	1548.26
695.36	1570.79
695.55	1605.61
695.74	1574.89
695.94	1759.21
696.13	1716.20
696.32	1701.86
696.52	1798.12
696.71	1816.55
696.90	1927.14
697.10	1894.37
697.29	1927.14
697.48	1908.71
697.67	1990.63
697.87	1931.23
698.06	1933.28
698.25	1763.30
698.45	1746.92
698.64	1759.21
698.83	1595.37
699.02	1605.61
699.22	1611.75
699.41	1587.18
699.60	1576.94
699.79	1705.96
699.99	1730.53
700.18	1650.66
700.37	1597.42
700.57	1574.89
700.76	1550.31
700.95	1523.69
701.14	1525.74
701.34	1507.30
701.53	1509.35
701.72	1478.63
701.91	1394.67
702.11	1480.68
702.30	1482.73
702.49	1349.61
702.68	1454.06
702.88	1409.00
703.07	1431.53
703.26	1308.65
703.45	1417.19
703.65	1458.15
703.84	1439.72
704.03	1396.71
704.22	1490.92
704.42	1419.24
704.61	1499.11
704.80	1501.16
704.99	1409.00
705.18	1482.73
705.38	1497.07
705.57	1497.07
705.76	1454.06
705.95	1478.63
706.15	1472.49
706.34	1538.02
706.53	1540.07
706.72	1617.90
706.91	1617.90
707.11	1681.38
707.30	1642.47
707.49	1683.43
707.68	1822.69
707.88	1773.54
708.07	1767.40
708.26	1798.12
708.45	1959.91
708.64	2064.35
708.84	2201.57
709.03	2297.82
709.22	2588.63
709.41	2621.40
709.60	2922.45
709.80	3065.81
709.99	3215.31
710.18	3219.41
710.37	3368.91
710.56	3463.12
710.75	3551.18
710.95	3545.03
711.14	3622.86
711.33	3594.19
711.52	3655.62
711.71	3735.50
711.91	3676.10
712.10	3561.42
712.29	3526.60
712.48	3401.68
712.67	3495.88
712.86	3323.85
713.06	3356.62
713.25	3188.69
713.44	3045.33
713.63	2936.79
713.82	2787.29
714.01	2666.46
714.21	2570.20
714.40	2478.04
714.59	2656.22
714.78	2562.01
714.97	2639.83
715.16	2826.20
715.35	2832.34
715.55	2867.16
715.74	3045.33
715.93	3100.62
716.12	2996.18
716.31	2899.92
716.50	2830.29
716.69	2738.13
716.89	2717.65
717.08	2451.42
717.27	2293.72
717.46	2047.97
717.65	1980.39
717.84	1861.60
718.03	1660.90
718.23	1638.38
718.42	1507.30
718.61	1513.45
718.80	1540.07
718.99	1460.20
719.18	1538.02
719.37	1431.53
719.56	1445.87
719.75	1390.57
719.95	1472.49
720.14	1413.10
720.33	1308.65
720.52	1341.42
720.71	1296.36
720.90	1380.33
721.09	1325.04
721.28	1351.66
721.47	1325.04
721.67	1343.47
721.86	1357.80
722.05	1316.84
722.24	1413.10
722.43	1271.79
722.62	1449.96
722.81	1355.76
723.00	1402.86
723.19	1341.42
723.38	1370.09
723.57	1282.03
723.76	1392.62
723.96	1343.47
724.15	1300.46
724.34	1394.67
724.53	1376.24
724.72	1314.80
724.91	1376.24
725.10	1398.76
725.29	1357.80
725.48	1411.05
725.67	1304.56
725.86	1302.51
726.05	1320.94
726.24	1236.97
726.43	1351.66
726.63	1282.03
726.82	1392.62
727.01	1316.84
727.20	1374.19
727.39	1320.94
727.58	1333.23
727.77	1304.56
727.96	1429.48
728.15	1257.45
728.34	1425.39
728.53	1437.67
728.72	1359.85
728.91	1265.64
729.10	1290.22
729.29	1355.76
729.48	1398.76
729.67	1452.01
729.86	1361.90
730.05	1351.66
730.24	1366.00
730.43	1390.57
730.62	1421.29
730.81	1398.76
731.00	1402.86
731.19	1335.28
731.39	1384.43
731.58	1425.39
731.77	1425.39
731.96	1374.19
732.15	1400.81
732.34	1392.62
732.53	1419.24
732.72	1288.17
732.91	1316.84
733.10	1302.51
733.29	1361.90
733.48	1322.99
733.67	1290.22
733.86	1300.46
734.05	1239.02
734.24	1271.79
734.43	1415.15
734.62	1314.80
734.81	1345.52
735.00	1193.97
735.19	1255.40
735.38	1290.22
735.57	1353.71
735.76	1288.17
735.95	1327.08
736.14	1366.00
736.33	1320.94
736.51	1275.88
736.70	1372.14
736.89	1398.76
737.08	1329.13
737.27	1245.16
737.46	1300.46
737.65	1331.18
737.84	1374.19
738.03	1271.79
738.22	1333.23
738.41	1331.18
738.60	1320.94
738.79	1372.14
738.98	1277.93
739.17	1306.60
739.36	1339.37
739.55	1275.88
739.74	1419.24
739.93	1343.47
740.12	1351.66
740.31	1327.08
740.50	1433.58
740.69	1417.19
740.88	1544.17
741.07	1404.91
741.25	1480.68
741.44	1554.41
741.63	1542.12
741.82	1527.78
742.01	1619.94
742.20	1560.55
742.39	1619.94
742.58	1576.94
742.77	1538.02
742.96	1472.49
743.15	1439.72
743.34	1452.01
743.53	1374.19
743.72	1337.32
743.90	1406.95
744.09	1372.14
744.28	1322.99
744.47	1327.08
744.66	1361.90
744.85	1357.80
745.04	1419.24
745.23	1236.97
745.42	1443.82
745.61	1361.90
745.80	1296.36
745.98	1294.32
746.17	1439.72
746.36	1435.63
746.55	1349.61
746.74	1380.33
746.93	1400.81
747.12	1306.60
747.31	1357.80
747.50	1343.47
747.69	1288.17
747.87	1402.86
748.06	1347.56
748.25	1308.65
748.44	1363.95
748.63	1277.93
748.82	1230.83
749.01	1320.94
749.20	1327.08
749.38	1275.88
749.57	1329.13
749.76	1425.39
749.95	1337.32
750.14	1345.52
750.33	1322.99
750.52	1333.23
750.70	1421.29
750.89	1288.17
751.08	1267.69
751.27	1255.40
751.46	1400.81
751.65	1335.28
751.84	1304.56
752.02	1247.21
752.21	1398.76
752.40	1329.13
752.59	1384.43
752.78	1452.01
752.97	1439.72
753.16	1333.23
753.34	1531.88
753.53	1634.28
753.72	1767.40
753.91	1746.92
754.10	1644.52
754.29	1699.81
754.47	1834.98
754.66	1812.45
754.85	1712.10
755.04	1742.82
755.23	1759.21
755.42	1732.58
755.60	1587.18
755.79	1640.42
755.98	1564.65
756.17	1456.11
756.36	1435.63
756.54	1472.49
756.73	1474.54
756.92	1413.10
757.11	1361.90
757.30	1304.56
757.48	1349.61
757.67	1382.38
757.86	1308.65
758.05	1282.03
758.24	1284.08
758.43	1316.84
758.61	1228.78
758.80	1390.57
758.99	1368.04
759.18	1234.93
759.36	1384.43
759.55	1366.00
759.74	1292.27
759.93	1353.71
760.12	1267.69
760.30	1372.14
760.49	1331.18
760.68	1265.64
760.87	1210.35
761.06	1230.83
761.24	1331.18
761.43	1304.56
761.62	1370.09
761.81	1318.89
761.99	1171.44
762.18	1288.17
762.37	1421.29
762.56	1261.55
762.74	1359.85
762.93	1267.69
763.12	1335.28
763.31	1357.80
763.49	1183.73
763.68	1454.06
763.87	1339.37
764.06	1333.23
764.24	1325.04
764.43	1327.08
764.62	1312.75
764.81	1370.09
764.99	1234.93
765.18	1368.04
765.37	1439.72
765.56	1482.73
765.74	1593.32
765.93	1677.29
766.12	1730.53
766.31	1763.30
766.49	1996.77
766.68	1939.43
766.87	1931.23
767.06	1984.48
767.24	2027.49
767.43	1920.99
767.62	1982.43
767.80	1894.37
767.99	1843.17
768.18	1802.21
768.37	1712.10
768.55	1542.12
768.74	1515.50
768.93	1413.10
769.11	1417.19
769.30	1425.39
769.49	1343.47
769.68	1384.43
769.86	1378.28
770.05	1398.76
770.24	1300.46
770.42	1392.62
770.61	1259.50
770.80	1239.02
770.98	1318.89
771.17	1327.08
771.36	1290.22
771.54	1279.98
771.73	1331.18
771.92	1339.37
772.10	1286.12
772.29	1325.04
772.48	1306.60
772.67	1333.23
772.85	1294.32
773.04	1359.85
773.23	1214.45
773.41	1273.84
773.60	1243.12
773.79	1288.17
773.97	1263.60
774.16	1353.71
774.35	1341.42
774.53	1406.95
774.72	1390.57
774.91	1402.86
775.09	1445.87
775.28	1462.25
775.47	1488.87
775.65	1685.48
775.84	1593.32
776.02	1505.26
776.21	1535.98
776.40	1560.55
776.58	1595.37
776.77	1609.70
776.96	1488.87
777.14	1482.73
777.33	1435.63
777.52	1431.53
777.70	1396.71
777.89	1359.85
778.07	1331.18
778.26	1320.94
778.45	1273.84
778.63	1353.71
778.82	1316.84
779.01	1271.79
779.19	1284.08
779.38	1341.42
779.56	1318.89
779.75	1259.50
779.94	1236.97
780.12	1337.32
780.31	1318.89
780.50	1247.21
780.68	1251.31
780.87	1239.02
781.05	1300.46
781.24	1279.98
781.43	1269.74
781.61	1261.55
781.80	1316.84
781.98	1329.13
782.17	1288.17
782.36	1239.02
782.54	1261.55
782.73	1239.02
782.91	1275.88
783.10	1327.08
783.29	1243.12
783.47	1218.54
783.66	1361.90
783.84	1353.71
784.03	1361.90
784.21	1308.65
784.40	1292.27
784.59	1269.74
784.77	1282.03
784.96	1288.17
785.14	1183.73
785.33	1386.47
785.51	1271.79
785.70	1359.85
785.89	1310.70
786.07	1275.88
786.26	1339.37
786.44	1243.12
786.63	1310.70
786.81	1284.08
787.00	1202.16
787.18	1310.70
787.37	1212.40
787.56	1312.75
787.74	1257.45
787.93	1284.08
788.11	1196.01
788.30	1388.52
788.48	1366.00
788.67	1322.99
788.85	1284.08
789.04	1243.12
789.22	1349.61
789.41	1232.88
789.60	1271.79
789.78	1261.55
789.97	1234.93
790.15	1388.52
790.34	1245.16
790.52	1349.61
790.71	1275.88
790.89	1259.50
791.08	1226.73
791.26	1228.78
791.45	1259.50
791.63	1300.46
791.82	1292.27
792.00	1271.79
792.19	1316.84
792.37	1339.37
792.56	1304.56
792.74	1275.88
792.93	1263.60
793.11	1279.98
793.30	1288.17
793.48	1306.60
793.67	1296.36
793.85	1226.73
794.04	1277.93
794.22	1279.98
794.41	1263.60
794.59	1228.78
794.78	1292.27
794.96	1253.36
795.15	1251.31
795.33	1318.89
795.52	1275.88
795.70	1282.03
795.89	1230.83
796.07	1277.93
796.26	1325.04
796.44	1290.22
796.63	1382.38
796.81	1310.70
796.99	1406.95
797.18	1431.53
797.36	1427.43
797.55	1615.85
797.73	1468.39
797.92	1468.39
798.10	1474.54
798.29	1472.49
798.47	1499.11
798.66	1568.74
798.84	1497.07
799.02	1443.82
799.21	1478.63
799.39	1529.83
799.58	1386.47
799.76	1382.38
799.95	1394.67
800.13	1382.38
800.32	1320.94
800.50	1300.46
800.68	1337.32
800.87	1329.13
801.05	1335.28
801.24	1310.70
801.42	1245.16
801.61	1282.03
801.79	1294.32
801.97	1279.98
802.16	1353.71
802.34	1255.40
802.53	1300.46
802.71	1325.04
802.90	1316.84
803.08	1361.90
803.26	1474.54
803.45	1419.24
803.63	1480.68
803.82	1548.26
804.00	1558.50
804.18	1533.93
804.37	1681.38
804.55	1648.61
804.74	1632.23
804.92	1693.67
805.10	1548.26
805.29	1615.85
805.47	1646.57
805.66	1636.33
805.84	1484.78
806.02	1470.44
806.21	1515.50
806.39	1449.96
806.57	1409.00
806.76	1435.63
806.94	1398.76
807.13	1406.95
807.31	1304.56
807.49	1277.93
807.68	1306.60
807.86	1312.75
808.04	1204.21
808.23	1300.46
808.41	1298.41
808.60	1216.49
808.78	1300.46
808.96	1331.18
809.15	1302.51
809.33	1294.32
809.51	1218.54
809.70	1304.56
809.88	1263.60
810.06	1296.36
810.25	1316.84
810.43	1292.27
810.61	1267.69
810.80	1265.64
810.98	1351.66
811.17	1337.32
811.35	1267.69
811.53	1255.40
811.72	1300.46
811.90	1325.04
812.08	1292.27
812.27	1294.32
812.45	1384.43
812.63	1505.26
812.82	1523.69
813.00	1527.78
813.18	1564.65
813.36	1626.09
813.55	1837.03
813.73	1875.94
813.91	1976.29
814.10	1982.43
814.28	2080.74
814.46	2234.33
814.65	2338.78
814.83	2123.74
815.01	2324.44
815.20	2136.03
815.38	2193.37
815.56	2101.22
815.75	1998.82
815.93	2021.35
816.11	1843.17
816.29	1832.93
816.48	1753.06
816.66	1644.52
816.84	1570.79
817.03	1482.73
817.21	1452.01
817.39	1406.95
817.57	1370.09
817.76	1259.50
817.94	1394.67
818.12	1277.93
818.31	1275.88
818.49	1363.95
818.67	1298.41
818.85	1247.21
819.04	1316.84
819.22	1275.88
819.40	1374.19
819.58	1257.45
819.77	1333.23
819.95	1320.94
820.13	1275.88
820.31	1226.73
820.50	1366.00
820.68	1359.85
820.86	1327.08
821.04	1249.26
821.23	1314.80
821.41	1308.65
821.59	1335.28
821.77	1261.55
821.96	1304.56
822.14	1234.93
822.32	1146.86
822.50	1341.42
822.69	1312.75
822.87	1322.99
823.05	1222.64
823.23	1298.41
823.42	1271.79
823.60	1306.60
823.78	1368.04
823.96	1314.80
824.15	1294.32
824.33	1273.84
824.51	1222.64
824.69	1316.84
824.87	1288.17
825.06	1265.64
825.24	1259.50
825.42	1236.97
825.60	1296.36
825.78	1318.89
825.97	1185.77
826.15	1271.79
826.33	1255.40
826.51	1327.08
826.69	1304.56
826.88	1341.42
827.06	1284.08
827.24	1333.23
827.42	1228.78
827.60	1294.32
827.79	1286.12
827.97	1363.95
828.15	1177.58
828.33	1277.93
828.51	1333.23
828.70	1333.23
828.88	1327.08
829.06	1445.87
829.24	1331.18
829.42	1349.61
829.60	1386.47
829.79	1411.05
829.97	1341.42
830.15	1425.39
830.33	1402.86
830.51	1517.54
830.69	1390.57
830.88	1435.63
831.06	1378.28
831.24	1427.43
831.42	1443.82
831.60	1366.00
831.78	1343.47
831.97	1275.88
832.15	1275.88
832.33	1284.08
832.51	1325.04
832.69	1292.27
832.87	1249.26
833.05	1316.84
833.24	1251.31
833.42	1308.65
833.60	1325.04
833.78	1370.09
833.96	1345.52
834.14	1269.74
834.32	1308.65
834.51	1292.27
834.69	1431.53
834.87	1339.37
835.05	1302.51
835.23	1312.75
835.41	1357.80
835.59	1282.03
835.77	1318.89
835.95	1236.97
836.14	1290.22
836.32	1261.55
836.50	1183.73
836.68	1234.93
836.86	1214.45
837.04	1312.75
837.22	1304.56
837.40	1290.22
837.58	1275.88
837.77	1263.60
837.95	1247.21
838.13	1384.43
838.31	1300.46
838.49	1228.78
838.67	1204.21
838.85	1320.94
839.03	1173.49
839.21	1337.32
839.39	1292.27
839.57	1277.93
839.76	1286.12
839.94	1316.84
840.12	1312.75
840.30	1284.08
840.48	1228.78
840.66	1279.98
840.84	1261.55
841.02	1310.70
841.20	1251.31
841.38	1300.46
841.56	1261.55
841.74	1347.56
841.92	1267.69
842.10	1273.84
842.28	1247.21
842.47	1337.32
842.65	1304.56
842.83	1370.09
843.01	1384.43
843.19	1452.01
843.37	1464.30
843.55	1388.52
843.73	1501.16
843.91	1509.35
844.09	1417.19
844.27	1562.60
844.45	1591.27
844.63	1638.38
844.81	1703.91
844.99	1748.97
845.17	1685.48
845.35	1751.01
845.53	1693.67
845.71	1730.53
845.89	1718.25
846.07	1628.14
846.25	1693.67
846.43	1607.66
846.61	1593.32
846.79	1531.88
846.97	1554.41
847.15	1490.92
847.33	1503.21
847.51	1353.71
847.69	1474.54
847.87	1314.80
848.05	1296.36
848.23	1284.08
848.41	1312.75
848.59	1257.45
848.77	1349.61
848.95	1296.36
849.13	1224.69
849.31	1150.96
849.49	1286.12
849.67	1331.18
849.85	1185.77
850.03	1255.40
850.21	1300.46
850.39	1245.16
850.57	1304.56
850.75	1234.93
850.93	1298.41
851.11	1261.55
851.29	1236.97
851.47	1208.30
851.65	1288.17
851.83	1294.32
852.01	1234.93
852.19	1361.90
852.37	1300.46
852.55	1288.17
852.73	1267.69
852.91	1255.40
853.09	1226.73
853.27	1284.08
853.45	1306.60
853.63	1271.79
853.81	1388.52
853.98	1357.80
854.16	1279.98
854.34	1331.18
854.52	1374.19
854.70	1359.85
854.88	1343.47
855.06	1228.78
855.24	1339.37
855.42	1417.19
855.60	1374.19
855.78	1337.32
855.96	1449.96
856.14	1337.32
856.32	1359.85
856.50	1429.48
856.67	1427.43
856.85	1421.29
857.03	1439.72
857.21	1337.32
857.39	1286.12
857.57	1298.41
857.75	1331.18
857.93	1300.46
858.11	1257.45
858.29	1282.03
858.47	1267.69
858.64	1372.14
858.82	1251.31
859.00	1290.22
859.18	1263.60
859.36	1294.32
859.54	1306.60
859.72	1279.98
859.90	1265.64
860.08	1284.08
860.26	1202.16
860.43	1296.36
860.61	1239.02
860.79	1345.52
860.97	1255.40
861.15	1320.94
861.33	1275.88
861.51	1245.16
861.69	1290.22
861.86	1241.07
862.04	1282.03
862.22	1304.56
862.40	1261.55
862.58	1224.69
862.76	1259.50
862.94	1290.22
863.11	1210.35
863.29	1298.41
863.47	1308.65
863.65	1380.33
863.83	1267.69
864.01	1257.45
864.19	1316.84
864.36	1261.55
864.54	1322.99
864.72	1251.31
864.90	1290.22
865.08	1243.12
865.26	1312.75
865.43	1322.99
865.61	1316.84
865.79	1261.55
865.97	1267.69
866.15	1261.55
866.33	1298.41
866.50	1353.71
866.68	1263.60
866.86	1429.48
867.04	1251.31
867.22	1306.60
867.40	1263.60
867.57	1306.60
867.75	1284.08
867.93	1269.74
868.11	1271.79
868.29	1366.00
868.46	1318.89
868.64	1247.21
868.82	1316.84
869.00	1279.98
869.18	1349.61
869.35	1310.70
869.53	1267.69
869.71	1275.88
869.89	1230.83
870.07	1253.36
870.24	1300.46
870.42	1279.98
870.60	1343.47
870.78	1310.70
870.96	1269.74
871.13	1327.08
871.31	1292.27
871.49	1259.50
871.67	1306.60
871.84	1292.27
872.02	1349.61
872.20	1265.64
872.38	1464.30
872.56	1329.13
872.73	1372.14
872.91	1339.37
873.09	1296.36
873.27	1374.19
873.44	1200.11
873.62	1259.50
873.80	1318.89
873.98	1279.98
874.15	1202.16
874.33	1341.42
874.51	1245.16
874.69	1290.22
874.86	1310.70
875.04	1275.88
875.22	1335.28
875.40	1228.78
875.57	1218.54
875.75	1243.12
875.93	1185.77
876.11	1251.31
876.28	1308.65
876.46	1253.36
876.64	1269.74
876.81	1202.16
876.99	1259.50
877.17	1249.26
877.35	1302.51
877.52	1282.03
877.70	1277.93
877.88	1275.88
878.05	1255.40
878.23	1290.22
878.41	1298.41
878.59	1243.12
878.76	1314.80
878.94	1357.80
879.12	1245.16
879.29	1247.21
879.47	1316.84
879.65	1277.93
879.83	1243.12
880.00	1247.21
880.18	1302.51
880.36	1374.19
880.53	1290.22
880.71	1267.69
880.89	1316.84
881.06	1271.79
881.24	1335.28
881.42	1273.84
881.59	1382.38
881.77	1271.79
881.95	1261.55
882.12	1337.32
882.30	1347.56
882.48	1286.12
882.65	1366.00
882.83	1265.64
883.01	1232.88
883.18	1304.56
883.36	1302.51
883.54	1277.93
883.71	1316.84
883.89	1388.52
884.07	1306.60
884.24	1269.74
884.42	1239.02
884.60	1220.59
884.77	1294.32
884.95	1314.80
885.13	1269.74
885.30	1224.69
885.48	1402.86
885.66	1255.40
885.83	1267.69
886.01	1288.17
886.18	1239.02
886.36	1310.70
886.54	1279.98
886.71	1255.40
886.89	1409.00
887.07	1243.12
887.24	1314.80
887.42	1314.80
887.59	1296.36
887.77	1327.08
887.95	1357.80
888.12	1292.27
888.30	1316.84
888.48	1243.12
888.65	1300.46
888.83	1294.32
889.00	1320.94
889.18	1275.88
889.36	1257.45
889.53	1286.12
889.71	1318.89
889.88	1236.97
890.06	1216.49
890.24	1308.65
890.41	1292.27
890.59	1290.22
890.76	1220.59
890.94	1296.36
891.12	1288.17
891.29	1306.60
891.47	1290.22
891.64	1267.69
891.82	1363.95
891.99	1245.16
892.17	1214.45
892.35	1214.45
892.52	1306.60
892.70	1320.94
892.87	1284.08
893.05	1388.52
893.22	1210.35
893.40	1234.93
893.58	1325.04
893.75	1275.88
893.93	1261.55
894.10	1314.80
894.28	1294.32
894.45	1243.12
894.63	1359.85
894.80	1345.52
894.98	1232.88
895.15	1226.73
895.33	1163.25
895.51	1214.45
895.68	1376.24
895.86	1275.88
896.03	1298.41
896.21	1200.11
896.38	1294.32
896.56	1228.78
896.73	1298.41
896.91	1193.97
897.08	1263.60
897.26	1241.07
897.43	1257.45
897.61	1312.75
897.78	1241.07
897.96	1267.69
898.13	1310.70
898.31	1239.02
898.48	1247.21
898.66	1263.60
898.83	1292.27
899.01	1290.22
899.19	1185.77
899.36	1306.60
899.54	1322.99
899.71	1345.52
899.89	1308.65
900.06	1339.37
900.23	1275.88
900.41	1224.69
900.58	1314.80
900.76	1284.08
900.93	1325.04
901.11	1271.79
901.28	1298.41
901.46	1236.97
901.63	1271.79
901.81	1312.75
901.98	1269.74
902.16	1292.27
902.33	1308.65
902.51	1255.40
902.68	1310.70
902.86	1230.83
903.03	1349.61
903.21	1245.16
903.38	1230.83
903.56	1318.89
903.73	1261.55
903.90	1257.45
904.08	1218.54
904.25	1312.75
904.43	1245.16
904.60	1288.17
904.78	1261.55
904.95	1232.88
905.13	1277.93
905.30	1308.65
905.47	1218.54
905.65	1357.80
905.82	1320.94
906.00	1173.49
906.17	1218.54
906.35	1298.41
906.52	1259.50
906.70	1351.66
906.87	1210.35
907.04	1253.36
907.22	1396.71
907.39	1161.20
907.57	1228.78
907.74	1259.50
907.91	1302.51
908.09	1306.60
908.26	1261.55
908.44	1208.30
908.61	1232.88
908.78	1198.06
908.96	1341.42
909.13	1339.37
909.31	1155.05
909.48	1318.89
909.66	1382.38
909.83	1329.13
910.00	1263.60
910.18	1284.08
910.35	1232.88
910.52	1322.99
910.70	1312.75
910.87	1292.27
911.05	1245.16
911.22	1230.83
911.39	1361.90
911.57	1259.50
911.74	1245.16
911.92	1331.18
912.09	1345.52
912.26	1279.98
912.44	1210.35
912.61	1286.12
912.78	1245.16
912.96	1185.77
913.13	1277.93
913.30	1345.52
913.48	1388.52
913.65	1337.32
913.83	1298.41
914.00	1386.47
914.17	1361.90
914.35	1378.28
914.52	1452.01
914.69	1406.95
914.87	1570.79
915.04	1476.59
915.21	1449.96
915.39	1558.50
915.56	1486.83
915.73	1466.35
915.91	1423.34
916.08	1296.36
916.25	1314.80
916.43	1480.68
916.60	1359.85
916.77	1443.82
916.95	1439.72
917.12	1320.94
917.29	1302.51
917.47	1296.36
917.64	1359.85
917.81	1353.71
917.98	1378.28
918.16	1257.45
918.33	1275.88
918.50	1402.86
918.68	1279.98
918.85	1222.64
919.02	1331.18
919.20	1335.28
919.37	1265.64
919.54	1284.08
919.72	1228.78
919.89	1236.97
920.06	1296.36
920.23	1310.70
920.41	1218.54
920.58	1243.12
920.75	1306.60
920.93	1286.12
921.10	1275.88
921.27	1275.88
921.44	1269.74
921.62	1247.21
921.79	1277.93
921.96	1257.45
922.13	1335.28
922.31	1226.73
922.48	1259.50
922.65	1341.42
922.82	1251.31
923.00	1325.04
923.17	1255.40
923.34	1286.12
923.52	1234.93
923.69	1249.26
923.86	1267.69
924.03	1325.04
924.21	1302.51
924.38	1320.94
924.55	1300.46
924.72	1241.07
924.89	1351.66
925.07	1302.51
925.24	1300.46
925.41	1284.08
925.58	1449.96
925.76	1341.42
925.93	1265.64
926.10	1306.60
926.27	1378.28
926.45	1308.65
926.62	1374.19
926.79	1339.37
926.96	1310.70
927.13	1247.21
927.31	1279.98
927.48	1316.84
927.65	1357.80
927.82	1210.35
927.99	1288.17
928.17	1333.23
928.34	1202.16
928.51	1249.26
928.68	1193.97
928.86	1333.23
929.03	1318.89
929.20	1275.88
929.37	1302.51
929.54	1314.80
929.71	1279.98
929.89	1316.84
930.06	1366.00
930.23	1304.56
930.40	1230.83
930.57	1271.79
930.75	1296.36
930.92	1271.79
931.09	1257.45
931.26	1292.27
931.43	1312.75
931.60	1253.36
931.78	1275.88
931.95	1257.45
932.12	1232.88
932.29	1312.75
932.46	1251.31
932.63	1286.12
932.81	1284.08
932.98	1273.84
933.15	1222.64
933.32	1275.88
933.49	1304.56
933.66	1288.17
933.83	1279.98
934.01	1296.36
934.18	1243.12
934.35	1337.32
934.52	1218.54
934.69	1306.60
934.86	1245.16
935.03	1216.49
935.21	1275.88
935.38	1320.94
935.55	1208.30
935.72	1253.36
935.89	1263.60
936.06	1363.95
936.23	1288.17
936.40	1320.94
936.58	1232.88
936.75	1273.84
936.92	1368.04
937.09	1318.89
937.26	1234.93
937.43	1288.17
937.60	1241.07
937.77	1263.60
937.94	1374.19
938.12	1259.50
938.29	1273.84
938.46	1271.79
938.63	1331.18
938.80	1214.45
938.97	1255.40
939.14	1232.88
939.31	1298.41
939.48	1310.70
939.65	1310.70
939.82	1310.70
940.00	1302.51
940.17	1273.84
940.34	1267.69
940.51	1230.83
940.68	1320.94
940.85	1279.98
941.02	1284.08
941.19	1327.08
941.36	1247.21
941.53	1275.88
941.70	1247.21
941.87	1245.16
942.04	1204.21
942.21	1218.54
942.38	1243.12
942.55	1251.31
942.73	1269.74
942.90	1230.83
943.07	1275.88
943.24	1290.22
943.41	1366.00
943.58	1200.11
943.75	1277.93
943.92	1349.61
944.09	1300.46
944.26	1320.94
944.43	1302.51
944.60	1218.54
944.77	1218.54
944.94	1257.45
945.11	1263.60
945.28	1322.99
945.45	1263.60
945.62	1228.78
945.79	1329.13
945.96	1286.12
946.13	1331.18
946.30	1538.02
946.47	1308.65
946.64	1239.02
946.81	1243.12
946.98	1343.47
947.15	1316.84
947.32	1378.28
947.49	1245.16
947.66	1212.40
947.83	1204.21
948.00	1322.99
948.17	1247.21
948.34	1294.32
948.51	1206.25
948.68	1284.08
948.85	1349.61
949.02	1259.50
949.19	1286.12
949.36	1267.69
949.53	1261.55
949.70	1277.93
949.87	1308.65
950.04	1347.56
950.21	1322.99
950.38	1271.79
950.55	1206.25
950.72	1306.60
950.89	1105.90
951.06	1343.47
951.23	1218.54
951.40	1228.78
951.57	1208.30
951.74	1218.54
951.91	1259.50
952.08	1175.53
952.24	1249.26
952.41	1239.02
952.58	1320.94
952.75	1390.57
952.92	1331.18
953.09	1279.98
953.26	1294.32
953.43	1394.67
953.60	1247.21
953.77	1212.40
953.94	1300.46
954.11	1325.04
954.28	1325.04
954.45	1310.70
954.62	1277.93
954.78	1189.87
954.95	1210.35
955.12	1298.41
955.29	1318.89
955.46	1294.32
955.63	1316.84
955.80	1310.70
955.97	1241.07
956.14	1251.31
956.31	1243.12
956.48	1337.32
956.64	1273.84
956.81	1245.16
956.98	1241.07
957.15	1232.88
957.32	1210.35
957.49	1363.95
957.66	1286.12
957.83	1204.21
958.00	1208.30
958.16	1296.36
958.33	1322.99
958.50	1279.98
958.67	1302.51
958.84	1255.40
959.01	1290.22
959.18	1224.69
959.35	1316.84
959.52	1325.04
959.68	1185.77
959.85	1279.98
960.02	1243.12
960.19	1339.37
960.36	1259.50
960.53	1300.46
960.70	1302.51
960.86	1243.12
961.03	1222.64
961.20	1228.78
961.37	1267.69
961.54	1361.90
961.71	1308.65
961.87	1347.56
962.04	1241.07
962.21	1153.01
962.38	1304.56
962.55	1282.03
962.72	1200.11
962.88	1271.79
963.05	1236.97
963.22	1263.60
963.39	1347.56
963.56	1288.17
963.73	1202.16
963.89	1236.97
964.06	1325.04
964.23	1320.94
964.40	1275.88
964.57	1206.25
964.74	1292.27
964.90	1206.25
965.07	1234.93
965.24	1267.69
965.41	1310.70
965.58	1251.31
965.74	1230.83
965.91	1243.12
966.08	1206.25
966.25	1333.23
966.42	1390.57
966.58	1142.77
966.75	1230.83
966.92	1214.45
967.09	1329.13
967.25	1249.26
967.42	1300.46
967.59	1300.46
967.76	1341.42
967.93	1312.75
968.09	1296.36
968.26	1359.85
968.43	1351.66
968.60	1304.56
968.76	1271.79
968.93	1294.32
969.10	1241.07
969.27	1284.08
969.43	1265.64
969.60	1224.69
969.77	1271.79
969.94	1239.02
970.10	1277.93
970.27	1286.12
970.44	1275.88
970.61	1251.31
970.77	1271.79
970.94	1284.08
971.11	1269.74
971.28	1325.04
971.44	1333.23
971.61	1273.84
971.78	1282.03
971.95	1306.60
972.11	1206.25
972.28	1318.89
972.45	1310.70
972.62	1263.60
972.78	1253.36
972.95	1232.88
973.12	1304.56
973.28	1333.23
973.45	1232.88
973.62	1212.40
973.79	1316.84
973.95	1251.31
974.12	1300.46
974.29	1316.84
974.45	1308.65
974.62	1335.28
974.79	1245.16
974.95	1259.50
975.12	1310.70
975.29	1265.64
975.46	1277.93
975.62	1312.75
975.79	1273.84
975.96	1368.04
976.12	1316.84
976.29	1259.50
976.46	1351.66
976.62	1249.26
976.79	1236.97
976.96	1247.21
977.12	1255.40
977.29	1255.40
977.46	1234.93
977.62	1159.15
977.79	1292.27
977.96	1282.03
978.12	1300.46
978.29	1245.16
978.46	1232.88
978.62	1308.65
978.79	1300.46
978.96	1271.79
979.12	1200.11
979.29	1200.11
979.46	1204.21
979.62	1273.84
979.79	1308.65
979.96	1263.60
980.12	1296.36
980.29	1308.65
980.45	1271.79
980.62	1210.35
980.79	1312.75
980.95	1359.85
981.12	1284.08
981.29	1239.02
981.45	1318.89
981.62	1261.55
981.78	1294.32
981.95	1284.08
982.12	1394.67
982.28	1327.08
982.45	1325.04
982.62	1224.69
982.78	1255.40
982.95	1230.83
983.11	1294.32
983.28	1306.60
983.45	1351.66
983.61	1314.80
983.78	1202.16
983.94	1372.14
984.11	1279.98
984.28	1296.36
984.44	1255.40
984.61	1224.69
984.77	1284.08
984.94	1341.42
985.10	1286.12
985.27	1218.54
985.44	1261.55
985.60	1259.50
985.77	1284.08
985.93	1322.99
986.10	1230.83
986.26	1259.50
986.43	1269.74
986.60	1316.84
986.76	1433.58
986.93	1267.69
987.09	1316.84
987.26	1234.93
987.42	1300.46
987.59	1279.98
987.76	1284.08
987.92	1277.93
988.09	1271.79
988.25	1277.93
988.42	1292.27
988.58	1271.79
988.75	1322.99
988.91	1255.40
989.08	1220.59
989.24	1257.45
989.41	1288.17
989.57	1320.94
989.74	1390.57
989.91	1329.13
990.07	1247.21
990.24	1249.26
990.40	1306.60
990.57	1298.41
990.73	1331.18
990.90	1302.51
991.06	1308.65
991.23	1243.12
991.39	1298.41
991.56	1210.35
991.72	1236.97
991.89	1357.80
992.05	1380.33
992.22	1245.16
992.38	1322.99
992.55	1343.47
992.71	1390.57
992.88	1329.13
993.04	1243.12
993.21	1224.69
993.37	1325.04
993.54	1290.22
993.70	1216.49
993.87	1179.63
994.03	1320.94
994.20	1282.03
994.36	1292.27
994.53	1296.36
994.69	1220.59
994.85	1300.46
995.02	1187.82
995.18	1277.93
995.35	1257.45
995.51	1236.97
995.68	1374.19
995.84	1206.25
996.01	1288.17
996.17	1314.80
996.34	1308.65
996.50	1261.55
996.67	1298.41
996.83	1247.21
996.99	1300.46
997.16	1390.57
997.32	1208.30
997.49	1261.55
997.65	1243.12
997.82	1316.84
997.98	1251.31
998.14	1320.94
998.31	1316.84
998.47	1277.93
998.64	1370.09
998.80	1271.79
998.97	1230.83
999.13	1318.89
999.29	1275.88
999.46	1267.69
999.62	1335.28
999.79	1316.84
999.95	1296.36
1000.12	1255.40
1000.28	1366.00
1000.44	1234.93
1000.61	1296.36
1000.77	1220.59
1000.94	1429.48
1001.10	1243.12
1001.26	1316.84
1001.43	1239.02
1001.59	1220.59
1001.75	1241.07
1001.92	1349.61
1002.08	1206.25
1002.25	1284.08
1002.41	1261.55
1002.57	1337.32
1002.74	1308.65
1002.90	1257.45
1003.07	1284.08
1003.23	1230.83
1003.39	1263.60
1003.56	1343.47
1003.72	1292.27
1003.88	1189.87
1004.05	1275.88
1004.21	1337.32
1004.37	1282.03
1004.54	1396.71
1004.70	1308.65
1004.87	1310.70
1005.03	1241.07
1005.19	1234.93
1005.36	1243.12
1005.52	1226.73
1005.68	1204.21
1005.85	1296.36
1006.01	1353.71
1006.17	1220.59
1006.34	1257.45
1006.50	1239.02
1006.66	1282.03
1006.83	1298.41
1006.99	1343.47
1007.15	1277.93
1007.32	1228.78
1007.48	1216.49
1007.64	1251.31
1007.81	1290.22
1007.97	1228.78
1008.13	1331.18
1008.30	1275.88
1008.46	1226.73
1008.62	1294.32
1008.78	1243.12
1008.95	1259.50
1009.11	1232.88
1009.27	1284.08
1009.44	1232.88
1009.60	1279.98
1009.76	1239.02
1009.93	1224.69
1010.09	1251.31
1010.25	1329.13
1010.41	1312.75
1010.58	1277.93
1010.74	1304.56
1010.90	1228.78
1011.07	1277.93
1011.23	1198.06
1011.39	1251.31
1011.55	1275.88
1011.72	1257.45
1011.88	1196.01
1012.04	1339.37
1012.20	1300.46
1012.37	1302.51
1012.53	1251.31
1012.69	1236.97
1012.86	1296.36
1013.02	1249.26
1013.18	1241.07
1013.34	1306.60
1013.51	1335.28
1013.67	1214.45
1013.83	1288.17
1013.99	1243.12
1014.16	1310.70
1014.32	1347.56
1014.48	1249.26
1014.64	1298.41
1014.80	1284.08
1014.97	1218.54
1015.13	1196.01
1015.29	1292.27
1015.45	1296.36
1015.62	1284.08
1015.78	1183.73
1015.94	1304.56
1016.10	1265.64
1016.27	1249.26
1016.43	1304.56
1016.59	1370.09
1016.75	1239.02
1016.91	1290.22
1017.08	1312.75
1017.24	1325.04
1017.40	1214.45
1017.56	1327.08
1017.72	1284.08
1017.89	1398.76
1018.05	1353.71
1018.21	1349.61
1018.37	1411.05
1018.53	1325.04
1018.70	1218.54
1018.86	1234.93
1019.02	1241.07
1019.18	1402.86
1019.34	1327.08
1019.50	1277.93
1019.67	1310.70
1019.83	1318.89
1019.99	1263.60
1020.15	1232.88
1020.31	1308.65
1020.48	1370.09
1020.64	1275.88
1020.80	1304.56
1020.96	1228.78
1021.12	1312.75
1021.28	1228.78
1021.44	1298.41
1021.61	1290.22
1021.77	1277.93
1021.93	1312.75
1022.09	1249.26
1022.25	1296.36
1022.41	1243.12
1022.58	1257.45
1022.74	1306.60
1022.90	1314.80
1023.06	1259.50
1023.22	1300.46
1023.38	1312.75
1023.54	1357.80
1023.70	1277.93
1023.87	1279.98
1024.03	1325.04
1024.19	1320.94
1024.35	1335.28
1024.51	1273.84
1024.67	1251.31
1024.83	1255.40
1024.99	1294.32
1025.16	1325.04
1025.32	1333.23
1025.48	1234.93
1025.64	1241.07
1025.80	1347.56
1025.96	1251.31
1026.12	1312.75
1026.28	1245.16
1026.44	1302.51
1026.60	1333.23
1026.77	1267.69
1026.93	1216.49
1027.09	1282.03
1027.25	1290.22
1027.41	1298.41
1027.57	1226.73
1027.73	1331.18
1027.89	1271.79
1028.05	1261.55
1028.21	1286.12
1028.37	1343.47
1028.53	1177.58
1028.70	1220.59
1028.86	1347.56
1029.02	1189.87
1029.18	1292.27
1029.34	1316.84
1029.50	1236.97
1029.66	1228.78
1029.82	1236.97
1029.98	1220.59
1030.14	1218.54
1030.30	1249.26
1030.46	1279.98
1030.62	1284.08
1030.78	1316.84
1030.94	1316.84
1031.10	1251.31
1031.26	1208.30
1031.42	1275.88
1031.58	1253.36
1031.74	1259.50
1031.90	1290.22
1032.07	1228.78
1032.23	1378.28
1032.39	1308.65
1032.55	1251.31
1032.71	1308.65
1032.87	1292.27
1033.03	1290.22
1033.19	1296.36
1033.35	1267.69
1033.51	1245.16
1033.67	1308.65
1033.83	1243.12
1033.99	1333.23
1034.15	1265.64
1034.31	1218.54
1034.47	1234.93
1034.63	1310.70
1034.79	1325.04
1034.95	1314.80
1035.11	1228.78
1035.27	1314.80
1035.43	1245.16
1035.59	1345.52
1035.75	1333.23
1035.91	1308.65
1036.07	1316.84
1036.23	1335.28
1036.39	1247.21
1036.54	1267.69
1036.70	1249.26
1036.86	1181.68
1037.02	1290.22
1037.18	1277.93
1037.34	1300.46
1037.50	1355.76
1037.66	1320.94
1037.82	1245.16
1037.98	1343.47
1038.14	1239.02
1038.30	1325.04
1038.46	1249.26
1038.62	1294.32