SpectraSuite Data File
++++++++++++++++++++++++++++++++++++
Date: Wed Jan 02 14:04:57 EST 2013
User: James
Dark Spectrum Present: No
Reference Spectrum Present: No
Number of Sampled Component Spectra: 1
Spectrometers: USB4C01400
Integration Time (usec): 100000 (USB4C01400)
Spectra Averaged: 1 (USB4C01400)
Boxcar Smoothing: 0 (USB4C01400)
Correct for Electrical Dark: No (USB4C01400)
Strobe/Lamp Enabled: No (USB4C01400)
Correct for Detector Non-linearity: No (USB4C01400)
Correct for Stray Light: No (USB4C01400)
Number of Pixels in Processed Spectrum: 3648
>>>>>Begin Processed Spectral Data<<<<<
345.93	1171.44
346.15	1171.44
346.36	1171.44
346.58	1136.62
346.79	1140.72
347.01	1312.75
347.22	1339.37
347.44	1216.49
347.65	1335.28
347.87	1310.70
348.08	1286.12
348.30	1290.22
348.51	1357.80
348.73	1417.19
348.94	1333.23
349.16	1341.42
349.37	1314.80
349.58	1308.65
349.80	1503.21
350.01	1417.19
350.23	1337.32
350.44	1374.19
350.66	1429.48
350.87	1357.80
351.09	1472.49
351.30	1333.23
351.52	1374.19
351.73	1388.52
351.95	1398.76
352.16	1466.35
352.38	1421.29
352.59	1376.24
352.80	1388.52
353.02	1388.52
353.23	1351.66
353.45	1359.85
353.66	1499.11
353.88	1458.15
354.09	1525.74
354.31	1458.15
354.52	1431.53
354.73	1505.26
354.95	1296.36
355.16	1535.98
355.38	1320.94
355.59	1431.53
355.81	1492.97
356.02	1413.10
356.24	1447.91
356.45	1460.20
356.66	1400.81
356.88	1339.37
357.09	1435.63
357.31	1484.78
357.52	1390.57
357.74	1431.53
357.95	1396.71
358.17	1392.62
358.38	1327.08
358.59	1452.01
358.81	1486.83
359.02	1351.66
359.24	1366.00
359.45	1431.53
359.66	1380.33
359.88	1322.99
360.09	1343.47
360.31	1316.84
360.52	1376.24
360.74	1380.33
360.95	1525.74
361.16	1441.77
361.38	1417.19
361.59	1363.95
361.81	1437.67
362.02	1443.82
362.23	1388.52
362.45	1327.08
362.66	1368.04
362.88	1318.89
363.09	1406.95
363.31	1300.46
363.52	1449.96
363.73	1433.58
363.95	1466.35
364.16	1507.30
364.38	1423.34
364.59	1347.56
364.80	1349.61
365.02	1396.71
365.23	1406.95
365.45	1427.43
365.66	1366.00
365.87	1376.24
366.09	1458.15
366.30	1466.35
366.51	1503.21
366.73	1437.67
366.94	1400.81
367.16	1343.47
367.37	1476.59
367.58	1449.96
367.80	1366.00
368.01	1402.86
368.23	1415.15
368.44	1415.15
368.65	1370.09
368.87	1468.39
369.08	1484.78
369.29	1404.91
369.51	1435.63
369.72	1372.14
369.94	1376.24
370.15	1374.19
370.36	1384.43
370.58	1378.28
370.79	1388.52
371.00	1386.47
371.22	1400.81
371.43	1396.71
371.64	1447.91
371.86	1359.85
372.07	1425.39
372.29	1429.48
372.50	1411.05
372.71	1368.04
372.93	1394.67
373.14	1316.84
373.35	1472.49
373.57	1423.34
373.78	1357.80
373.99	1472.49
374.21	1386.47
374.42	1449.96
374.63	1366.00
374.85	1327.08
375.06	1400.81
375.27	1398.76
375.49	1384.43
375.70	1474.54
375.91	1415.15
376.13	1345.52
376.34	1359.85
376.55	1374.19
376.77	1363.95
376.98	1417.19
377.19	1433.58
377.41	1351.66
377.62	1380.33
377.83	1347.56
378.05	1413.10
378.26	1476.59
378.47	1398.76
378.69	1454.06
378.90	1431.53
379.11	1382.38
379.33	1531.88
379.54	1427.43
379.75	1396.71
379.97	1370.09
380.18	1460.20
380.39	1292.27
380.61	1460.20
380.82	1347.56
381.03	1445.87
381.25	1411.05
381.46	1404.91
381.67	1382.38
381.89	1435.63
382.10	1394.67
382.31	1368.04
382.52	1306.60
382.74	1439.72
382.95	1419.24
383.16	1427.43
383.38	1529.83
383.59	1462.25
383.80	1437.67
384.02	1417.19
384.23	1380.33
384.44	1415.15
384.65	1415.15
384.87	1361.90
385.08	1484.78
385.29	1421.29
385.51	1347.56
385.72	1370.09
385.93	1466.35
386.14	1445.87
386.36	1492.97
386.57	1390.57
386.78	1427.43
387.00	1374.19
387.21	1400.81
387.42	1396.71
387.63	1566.70
387.85	1437.67
388.06	1355.76
388.27	1447.91
388.49	1415.15
388.70	1402.86
388.91	1312.75
389.12	1374.19
389.34	1394.67
389.55	1480.68
389.76	1363.95
389.97	1376.24
390.19	1384.43
390.40	1439.72
390.61	1478.63
390.82	1419.24
391.04	1433.58
391.25	1419.24
391.46	1495.02
391.68	1396.71
391.89	1437.67
392.10	1314.80
392.31	1363.95
392.53	1427.43
392.74	1419.24
392.95	1452.01
393.16	1402.86
393.38	1353.71
393.59	1427.43
393.80	1384.43
394.01	1376.24
394.23	1474.54
394.44	1394.67
394.65	1400.81
394.86	1429.48
395.07	1427.43
395.29	1476.59
395.50	1546.22
395.71	1429.48
395.92	1398.76
396.14	1372.14
396.35	1441.77
396.56	1320.94
396.77	1402.86
396.99	1419.24
397.20	1392.62
397.41	1439.72
397.62	1390.57
397.83	1409.00
398.05	1472.49
398.26	1386.47
398.47	1396.71
398.68	1441.77
398.90	1431.53
399.11	1411.05
399.32	1402.86
399.53	1472.49
399.74	1546.22
399.96	1384.43
400.17	1409.00
400.38	1458.15
400.59	1406.95
400.81	1384.43
401.02	1472.49
401.23	1443.82
401.44	1429.48
401.65	1497.07
401.87	1439.72
402.08	1501.16
402.29	1507.30
402.50	1423.34
402.71	1404.91
402.93	1495.02
403.14	1499.11
403.35	1394.67
403.56	1529.83
403.77	1462.25
403.99	1433.58
404.20	1466.35
404.41	1478.63
404.62	1447.91
404.83	1503.21
405.04	1468.39
405.26	1447.91
405.47	1406.95
405.68	1445.87
405.89	1441.77
406.10	1433.58
406.32	1433.58
406.53	1540.07
406.74	1499.11
406.95	1482.73
407.16	1415.15
407.37	1409.00
407.59	1392.62
407.80	1406.95
408.01	1468.39
408.22	1525.74
408.43	1433.58
408.64	1355.76
408.86	1394.67
409.07	1486.83
409.28	1361.90
409.49	1423.34
409.70	1519.59
409.91	1402.86
410.13	1503.21
410.34	1402.86
410.55	1427.43
410.76	1417.19
410.97	1452.01
411.18	1433.58
411.40	1439.72
411.61	1495.02
411.82	1488.87
412.03	1484.78
412.24	1380.33
412.45	1415.15
412.66	1552.36
412.88	1492.97
413.09	1449.96
413.30	1456.11
413.51	1499.11
413.72	1449.96
413.93	1513.45
414.14	1492.97
414.36	1521.64
414.57	1447.91
414.78	1425.39
414.99	1558.50
415.20	1497.07
415.41	1572.84
415.62	1454.06
415.83	1470.44
416.05	1439.72
416.26	1480.68
416.47	1415.15
416.68	1468.39
416.89	1441.77
417.10	1572.84
417.31	1507.30
417.52	1593.32
417.74	1517.54
417.95	1478.63
418.16	1531.88
418.37	1472.49
418.58	1605.61
418.79	1558.50
419.00	1509.35
419.21	1558.50
419.42	1540.07
419.64	1519.59
419.85	1650.66
420.06	1558.50
420.27	1574.89
420.48	1546.22
420.69	1529.83
420.90	1710.05
421.11	1556.46
421.32	1527.78
421.53	1548.26
421.75	1585.13
421.96	1722.34
422.17	1523.69
422.38	1638.38
422.59	1621.99
422.80	1556.46
423.01	1628.14
423.22	1650.66
423.43	1621.99
423.64	1583.08
423.85	1638.38
424.07	1681.38
424.28	1751.01
424.49	1615.85
424.70	1804.26
424.91	1689.57
425.12	1710.05
425.33	1662.95
425.54	1673.19
425.75	1755.11
425.96	1626.09
426.17	1765.35
426.38	1783.78
426.59	1740.77
426.81	1912.80
427.02	1789.92
427.23	1763.30
427.44	1763.30
427.65	1714.15
427.86	1753.06
428.07	1937.38
428.28	1832.93
428.49	1812.45
428.70	1955.81
428.91	1839.08
429.12	1929.19
429.33	1970.15
429.54	1871.84
429.75	1920.99
429.96	2029.54
430.17	1957.86
430.38	1988.58
430.60	2027.49
430.81	2037.73
431.02	2015.20
431.23	2058.21
431.44	2078.69
431.65	2031.58
431.86	2189.28
432.07	2050.02
432.28	2125.79
432.49	2084.83
432.70	2281.44
432.91	2215.90
433.12	2109.41
433.33	2387.93
433.54	2275.29
433.75	2359.26
433.96	2285.53
434.17	2263.01
434.38	2398.17
434.59	2467.80
434.80	2332.64
435.01	2408.41
435.22	2457.56
435.43	2574.30
435.64	2453.47
435.85	2545.63
436.06	2582.49
436.27	2615.26
436.48	2570.20
436.69	2725.85
436.90	2678.74
437.11	2639.83
437.32	2822.10
437.53	2889.68
437.74	2885.59
437.95	2861.01
438.16	2768.85
438.37	2983.89
438.58	2807.77
438.79	3069.91
439.00	3088.34
439.21	2949.08
439.42	3117.01
439.63	3065.81
439.84	3014.61
440.05	3219.41
440.26	3225.55
440.47	3223.50
440.68	3260.37
440.89	3379.15
441.10	3235.79
441.31	3198.93
441.52	3241.93
441.73	3334.09
441.94	3504.07
442.15	3448.78
442.36	3495.88
442.57	3530.70
442.78	3512.27
442.99	3569.61
443.20	3493.83
443.41	3577.80
443.62	3602.38
443.83	3583.95
444.04	3655.62
444.25	3807.17
444.46	3747.78
444.67	3772.36
444.88	3733.45
445.09	3774.41
445.30	3915.72
445.51	3911.62
445.72	3868.61
445.93	3968.96
446.14	3999.68
446.35	3971.01
446.56	3962.82
446.77	4165.57
446.98	3950.53
447.19	4120.51
447.39	4218.82
447.60	4122.56
447.81	4272.06
448.02	4147.14
448.23	4304.83
448.44	4323.26
448.65	4280.25
448.86	4446.14
449.07	4433.85
449.28	4401.08
449.49	4460.48
449.70	4534.20
449.91	4542.39
450.12	4569.02
450.33	4468.67
450.54	4851.64
450.75	4552.63
450.95	4714.42
451.16	4988.85
451.37	4786.10
451.58	5115.83
451.79	4945.84
452.00	4970.42
452.21	5132.21
452.42	5199.79
452.63	5152.69
452.84	5074.87
453.05	5326.77
453.26	5420.97
453.47	5191.60
453.68	5271.47
453.88	5693.35
454.09	5529.52
454.30	5769.13
454.51	5674.92
454.72	5658.54
454.93	5771.18
455.14	5828.52
455.35	5930.92
455.56	6148.00
455.77	5992.36
455.98	6262.69
456.18	6182.82
456.39	6109.09
456.60	6234.02
456.81	6326.18
457.02	6244.26
457.23	6360.99
457.44	6248.35
457.65	6254.50
457.86	6326.18
458.06	6442.91
458.27	6358.94
458.48	6502.30
458.69	6604.70
458.90	6490.01
459.11	6422.43
459.32	6539.16
459.53	6551.45
459.74	6602.65
459.94	6506.40
460.15	6406.05
460.36	6567.84
460.57	6350.75
460.78	6469.53
460.99	6283.17
461.20	6348.70
461.41	6596.51
461.61	6221.73
461.82	6096.80
462.03	6264.74
462.24	6330.27
462.45	6143.91
462.66	6086.56
462.87	6086.56
463.08	6113.19
463.28	6078.37
463.49	6043.56
463.70	5900.20
463.91	5691.31
464.12	5980.07
464.33	5666.73
464.54	5793.70
464.74	5992.36
464.95	5941.16
465.16	5676.97
465.37	5803.94
465.58	5541.80
465.79	5644.20
465.99	5777.32
466.20	5578.67
466.41	5646.25
466.62	5617.58
466.83	5453.74
467.04	5513.13
467.25	5506.99
467.45	5558.19
467.66	5420.97
467.87	5513.13
468.08	5468.08
468.29	5586.86
468.50	5570.48
468.70	5509.04
468.91	5545.90
469.12	5427.12
469.33	5398.45
469.54	5451.69
469.75	5509.04
469.95	5519.28
470.16	5451.69
470.37	5445.55
470.58	5578.67
470.79	5382.06
470.99	5480.36
471.20	5545.90
471.41	5504.94
471.62	5504.94
471.83	5498.80
472.03	5654.44
472.24	5443.50
472.45	5554.09
472.66	5574.57
472.87	5492.65
473.08	5785.51
473.28	5396.40
473.49	5615.53
473.70	5699.50
473.91	5447.60
474.12	5658.54
474.32	5683.11
474.53	5746.60
474.74	5685.16
474.95	5595.05
475.16	5504.94
475.36	5707.69
475.57	5617.58
475.78	5666.73
475.99	5781.42
476.19	5762.98
476.40	5656.49
476.61	5543.85
476.82	5525.42
477.03	5746.60
477.23	5730.22
477.44	5550.00
477.65	5652.39
477.86	5832.62
478.06	5621.67
478.27	5801.90
478.48	5822.38
478.69	5636.01
478.90	5537.71
479.10	5586.86
479.31	5717.93
479.52	5586.86
479.73	5662.63
479.93	5609.39
480.14	5824.42
480.35	5785.51
480.56	5449.64
480.76	5537.71
480.97	5801.90
481.18	5851.05
481.39	5752.74
481.59	5814.18
481.80	5713.83
482.01	5828.52
482.22	5793.70
482.42	5855.14
482.63	5857.19
482.84	5797.80
483.05	5855.14
483.25	5863.33
483.46	6131.62
483.67	5906.34
483.88	6051.75
484.08	5865.38
484.29	5928.87
484.50	6152.10
484.71	6014.88
484.91	6064.04
485.12	6182.82
485.33	6252.45
485.54	6360.99
485.74	6172.58
485.95	6422.43
486.16	6299.55
486.37	6217.63
486.57	6604.70
486.78	6715.29
486.99	6588.32
487.19	6629.27
487.40	6645.66
487.61	6987.67
487.82	6768.54
488.02	6938.52
488.23	7114.64
488.44	7143.32
488.64	6872.98
488.85	7090.07
489.06	7112.60
489.27	7169.94
489.47	7268.24
489.68	7389.07
489.89	7600.01
490.09	7432.08
490.30	7692.17
490.51	7700.36
490.71	7749.51
490.92	7782.28
491.13	7894.92
491.34	7970.69
491.54	7860.10
491.75	8236.93
491.96	8175.49
492.16	8132.48
492.37	8288.13
492.58	8329.09
492.78	8433.54
492.99	8589.18
493.20	8634.24
493.40	8503.17
493.61	8857.46
493.82	8624.00
494.03	8750.97
494.23	8980.34
494.44	9080.69
494.65	9084.79
494.85	9203.57
495.06	9162.61
495.27	9359.22
495.47	9416.56
495.68	9465.71
495.89	9639.79
496.09	9713.52
496.30	9602.93
496.51	9887.59
496.71	9748.33
496.92	9901.93
497.13	9936.74
497.33	10114.92
497.54	10149.73
497.75	10501.98
497.95	10354.53
498.16	10473.31
498.37	10297.19
498.57	10461.02
498.78	10522.46
498.98	10794.84
499.19	11013.98
499.40	10862.43
499.60	11030.36
499.81	11038.55
500.02	11151.19
500.22	11224.92
500.43	11339.60
500.64	11566.93
500.84	11437.91
501.05	11626.32
501.26	11738.96
501.46	11861.84
501.67	11974.47
501.87	12087.11
502.08	11913.03
502.29	12060.49
502.49	12160.84
502.70	12320.58
502.91	12369.73
503.11	12392.26
503.32	12767.04
503.52	12676.93
503.73	12848.96
503.94	12926.78
504.14	12957.50
504.35	13047.61
504.56	13125.43
504.76	13115.19
504.97	13160.25
505.17	13242.17
505.38	13432.63
505.59	13717.29
505.79	13995.82
506.00	13694.77
506.20	13612.85
506.41	13977.39
506.62	14053.16
506.82	13981.48
507.03	14014.25
507.23	14024.49
507.44	14401.32
507.65	14225.19
507.85	14313.25
508.06	14448.42
508.26	14772.00
508.47	14384.93
508.68	14954.27
508.88	14837.53
509.09	14833.44
509.29	14905.12
509.50	15114.01
509.71	15093.53
509.91	15210.26
510.12	15292.18
510.32	15499.03
510.53	15488.79
510.73	15621.91
510.94	15638.29
511.15	15419.16
511.35	15572.75
511.56	15746.83
511.76	15750.93
511.97	15933.20
512.18	16060.17
512.38	16137.99
512.59	16004.88
512.79	16197.38
513.00	16369.41
513.20	16342.79
513.41	16318.22
513.61	16090.89
513.82	16981.76
514.03	16611.07
514.23	16355.08
514.44	16525.06
514.64	16967.42
514.85	16680.71
515.05	17055.48
515.26	16619.27
515.46	17030.91
515.67	16996.09
515.88	17207.03
516.08	17104.64
516.29	17176.31
516.49	17245.94
516.70	17702.64
516.90	17405.69
517.11	17432.31
517.31	17825.52
517.52	17348.34
517.72	17524.47
517.93	17549.04
518.14	17659.63
518.34	17688.31
518.55	17678.07
518.75	18046.70
518.96	17979.12
519.16	17927.92
519.37	17975.02
519.57	17938.16
519.78	18243.31
519.98	18233.07
520.19	18439.91
520.39	18183.91
520.60	18634.47
520.80	18536.17
521.01	18321.13
521.21	18554.60
521.42	18583.27
521.62	18829.02
521.83	18945.76
522.03	18734.82
522.24	18999.01
522.44	19351.26
522.65	18962.14
522.85	19007.20
523.06	18919.14
523.26	19066.59
523.47	19345.11
523.67	19263.19
523.88	19433.18
524.08	19678.93
524.29	19365.59
524.49	19377.88
524.70	19625.68
524.90	19412.70
525.11	20006.61
525.31	19949.26
525.52	19752.66
525.72	19748.56
525.93	19910.35
526.13	20059.85
526.34	20235.98
526.54	20360.91
526.75	20278.99
526.95	20389.58
527.16	20577.99
527.36	20346.57
527.57	20739.78
527.77	20549.32
527.98	20559.56
528.18	21083.84
528.39	20917.95
528.59	20997.82
528.79	20895.43
529.00	20985.54
529.20	21237.44
529.41	21251.77
529.61	21204.67
529.82	21450.42
530.02	21417.66
530.23	21483.19
530.43	21345.98
530.64	21710.52
530.84	21667.51
531.05	21868.21
531.25	21919.41
531.45	21810.87
531.66	22322.86
531.86	22318.76
532.07	22154.93
532.27	22349.48
532.48	22484.65
532.68	22396.59
532.89	22503.08
533.09	22726.31
533.29	23066.27
533.50	23269.02
533.70	22834.85
533.91	23072.42
534.11	23303.84
534.32	23053.98
534.52	23543.45
534.72	23377.56
534.93	23762.58
535.13	24041.11
535.34	23813.78
535.54	23781.01
535.75	24297.10
535.95	24403.60
536.15	24600.20
536.36	24430.22
536.56	24809.09
536.77	24635.02
536.97	24800.90
537.18	25259.65
537.38	25112.19
537.58	25513.59
537.79	25376.38
537.99	25464.44
538.20	25595.51
538.40	25556.60
538.60	25839.22
538.81	25958.00
539.01	25943.67
539.22	26334.83
539.42	26541.68
539.62	26852.97
539.83	26840.68
540.03	27027.04
540.24	26668.65
540.44	27037.28
540.64	27364.96
540.85	26981.99
541.05	27504.22
541.26	28057.17
541.46	27797.08
541.66	28229.20
541.87	28032.60
542.07	28493.39
542.27	28032.60
542.48	28730.95
542.68	28497.49
542.89	28683.85
543.09	28919.37
543.29	28892.74
543.50	29318.72
543.70	29312.58
543.90	29359.68
544.11	29947.45
544.31	30019.13
544.52	29957.69
544.72	30033.46
544.92	30441.01
545.13	30236.21
545.33	30258.74
545.53	30572.08
545.74	30963.24
545.94	31184.42
546.14	31512.10
546.35	31585.82
546.55	31497.76
546.76	31917.59
546.96	31897.11
547.16	31999.51
547.37	32321.04
547.57	32294.42
547.77	32712.20
547.98	32603.66
548.18	32564.75
548.38	32366.10
548.59	33125.89
548.79	32783.88
548.99	33592.83
549.20	33363.46
549.40	34020.86
549.60	33959.42
549.81	33723.90
550.01	34137.59
550.21	34067.96
550.42	34258.42
550.62	34489.84
550.82	34770.41
551.03	34463.22
551.23	34794.99
551.43	34794.99
551.64	34870.76
551.84	35442.15
552.04	35870.17
552.25	35706.34
552.45	35718.62
552.65	36365.78
552.86	35898.84
553.06	35710.43
553.26	36382.16
553.46	36347.35
553.67	36191.70
553.87	36705.74
554.07	36691.41
554.28	36396.50
554.48	36888.01
554.68	37234.12
554.89	37230.02
555.09	37574.08
555.29	37725.63
555.50	37608.90
555.70	37858.75
555.90	37737.92
556.10	37991.87
556.31	38014.40
556.51	38096.31
556.71	38301.11
556.92	38817.20
557.12	38364.60
557.32	38598.07
557.52	39044.52
557.73	38843.82
557.93	38995.37
558.13	38927.79
558.34	39333.29
558.54	39271.85
558.74	39091.63
558.94	39509.41
559.15	39370.15
559.35	39667.11
559.55	39654.82
559.75	39527.84
559.96	39826.85
560.16	40132.00
560.36	40029.60
560.56	40052.12
560.77	40009.12
560.97	40549.78
561.17	40623.51
561.38	40627.60
561.58	40361.37
561.78	40977.81
561.98	40660.37
562.19	40918.42
562.39	41231.75
562.59	40885.65
562.79	41031.05
563.00	41403.78
563.20	41037.20
563.40	41764.23
563.60	41115.02
563.81	41258.38
564.01	41805.19
564.21	41481.61
564.41	41315.72
564.61	41977.22
564.82	41289.10
565.02	41885.06
565.22	41745.80
565.42	41930.11
565.63	42069.37
565.83	42464.63
566.03	42382.71
566.23	42454.39
566.44	42605.94
566.64	42542.45
566.84	42925.42
567.04	42579.32
567.24	42988.91
567.45	42939.76
567.65	42683.76
567.85	42628.47
568.05	42861.94
568.26	43363.69
568.46	42800.50
568.66	43484.52
568.86	43271.53
569.06	43283.82
569.27	43732.32
569.47	43316.59
569.67	44060.00
569.87	43470.18
570.07	43705.70
570.28	43750.76
570.48	43761.00
570.68	44043.62
570.88	43591.01
571.08	43763.04
571.29	43953.51
571.49	44143.97
571.69	44098.91
571.89	44485.98
572.09	44637.53
572.30	44393.82
572.50	44717.40
572.70	44490.07
572.90	44803.41
573.10	44891.48
573.30	45241.68
573.51	44815.70
573.71	44649.81
573.91	44733.78
574.11	45102.42
574.31	45258.06
574.51	44981.59
574.72	45561.16
574.92	45483.34
575.12	45151.57
575.32	45565.26
575.52	45733.19
575.72	45636.94
575.93	45868.36
576.13	45866.31
576.33	45987.14
576.53	45954.37
576.73	46099.78
576.93	45968.71
577.14	45997.38
577.34	46144.83
577.54	46556.47
577.74	46329.15
577.94	46257.47
578.14	46697.78
578.35	46603.58
578.55	46796.09
578.75	46884.15
578.95	47181.10
579.15	46896.44
579.35	47265.07
579.55	47035.70
579.75	47480.11
579.96	47166.77
580.16	47678.76
580.36	47701.29
580.56	47877.41
580.76	47658.28
580.96	48074.02
581.16	47781.16
581.37	47742.25
581.57	47932.71
581.77	48438.56
581.97	48618.78
582.17	48653.59
582.37	48700.70
582.57	48348.45
582.77	48631.07
582.97	48651.55
583.18	48702.74
583.38	48866.58
583.58	49067.28
583.78	49030.42
583.98	49372.43
584.18	49192.21
584.38	49513.74
584.58	49599.76
584.78	49720.59
584.99	49868.04
585.19	49739.02
585.39	50029.83
585.59	50343.17
585.79	49939.72
585.99	49886.47
586.19	50408.70
586.39	50418.94
586.59	50570.49
586.79	51027.19
587.00	50566.40
587.20	50820.34
587.40	50978.04
587.60	51287.28
587.80	51070.20
588.00	51334.38
588.20	51672.30
588.40	51522.80
588.60	51766.51
588.80	51123.44
589.00	52004.07
589.20	52026.60
589.40	51920.10
589.61	52382.94
589.81	51864.81
590.01	52024.55
590.21	52544.73
590.41	52434.14
590.61	52362.46
590.81	52401.38
591.01	53138.65
591.21	52856.03
591.41	53191.89
591.61	52970.71
591.81	53589.20
592.01	52749.53
592.21	53175.51
592.41	53163.22
592.61	53615.82
592.81	53654.73
593.02	53869.77
593.22	53855.43
593.42	53421.26
593.62	54287.56
593.82	54228.16
594.02	53867.72
594.22	54170.82
594.42	54172.87
594.62	53935.30
594.82	54838.46
595.02	54340.80
595.22	54357.19
595.42	54564.03
595.62	54521.02
595.82	54688.96
596.02	55364.79
596.22	54869.18
596.42	55504.05
596.62	55301.30
596.82	55149.75
597.02	54811.84
597.22	55665.84
597.42	55514.29
597.62	55215.29
597.82	55307.44
598.02	54787.26
598.22	55588.02
598.42	55239.86
598.62	55133.37
598.82	55411.89
599.02	55588.02
599.22	56169.64
599.42	55862.44
599.62	55393.46
599.82	56026.28
600.02	55743.66
600.22	56122.54
600.42	55846.06
600.62	56210.60
600.82	55940.27
601.02	56022.19
601.22	56165.54
601.42	56126.63
601.62	56548.51
601.82	56261.80
602.02	55626.93
602.22	55610.54
602.42	55993.51
602.62	56169.64
602.82	56110.25
603.02	56196.26
603.22	56179.88
603.42	56241.32
603.62	55979.18
603.82	56802.46
604.02	55848.11
604.22	56394.92
604.42	56132.78
604.62	56388.77
604.82	56337.57
605.02	56386.72
605.22	56284.33
605.42	55940.27
605.62	56011.95
605.82	56984.73
606.02	56102.06
606.22	56360.10
606.42	55805.10
606.62	56425.64
606.82	56050.86
607.01	55841.96
607.21	55694.51
607.41	55637.17
607.61	56257.70
607.81	55395.51
608.01	55839.92
608.21	56028.33
608.41	55622.83
608.61	55323.83
608.81	56169.64
609.01	55780.52
609.21	55274.68
609.41	55831.72
609.61	55663.79
609.81	55424.18
610.01	55383.22
610.21	55483.57
610.40	55694.51
610.60	55645.36
610.80	54922.43
611.00	55317.68
611.20	55102.65
611.40	55016.63
611.60	55174.33
611.80	54805.69
612.00	55379.12
612.20	55266.48
612.40	54695.10
612.60	54766.78
612.79	54586.56
612.99	54523.07
613.19	54121.67
613.39	54561.98
613.59	54361.28
613.79	54025.42
613.99	54561.98
614.19	53925.07
614.39	53556.43
614.59	53742.80
614.79	53941.45
614.98	53904.59
615.18	53974.22
615.38	53794.00
615.58	53292.24
615.78	53574.86
615.98	53441.74
616.18	53656.78
616.38	53288.15
616.58	53189.84
616.77	53171.41
616.97	53193.94
617.17	52909.27
617.37	52845.79
617.57	53066.97
617.77	52845.79
617.97	52847.83
618.17	52575.45
618.36	52311.27
618.56	52231.40
618.76	52620.51
618.96	52047.08
619.16	51983.59
619.36	51772.65
619.56	51778.79
619.75	51911.91
619.95	52034.79
620.15	51754.22
620.35	51334.38
620.55	51166.45
620.75	51514.61
620.95	51303.67
621.14	50892.02
621.34	51107.06
621.54	50869.50
621.74	50892.02
621.94	50918.65
622.14	50418.94
622.34	50439.42
622.53	50345.22
622.73	49661.19
622.93	50289.92
623.13	50644.22
623.33	49939.72
623.53	49812.74
623.72	49509.64
623.92	49757.45
624.12	49562.89
624.32	49739.02
624.52	49401.10
624.72	49614.09
624.91	49267.98
625.11	48962.84
625.31	49280.27
625.51	49038.61
625.71	48799.00
625.91	49184.02
626.10	48805.14
626.30	48721.18
626.50	48919.83
626.70	48092.45
626.90	48600.35
627.09	47942.95
627.29	47949.09
627.49	47869.22
627.69	47557.93
627.89	47721.77
628.08	47889.70
628.28	47310.13
628.48	47160.62
628.68	47400.24
628.88	47166.77
629.07	47166.77
629.27	46949.68
629.47	47023.41
629.67	46650.68
629.87	47060.27
630.06	46779.70
630.26	46443.84
630.46	46353.72
630.66	45962.56
630.86	46263.61
631.05	46165.31
631.25	45944.13
631.45	45718.85
631.65	45753.67
631.84	45602.12
632.04	46224.70
632.24	45227.34
632.44	45354.32
632.64	45407.56
632.83	45575.50
633.03	45247.82
633.23	45124.94
633.43	45069.65
633.62	44846.42
633.82	44991.83
634.02	44299.61
634.22	44504.41
634.41	44567.90
634.61	44668.25
634.81	44006.75
635.01	44531.03
635.20	44420.44
635.40	44033.38
635.60	44303.71
635.80	43779.43
635.99	43746.66
636.19	43797.86
636.39	43210.09
636.59	43910.50
636.78	43326.83
636.98	43117.93
637.18	43023.73
637.38	43705.70
637.57	43124.08
637.77	42999.15
637.97	43187.56
638.17	42552.69
638.36	42603.89
638.56	42243.45
638.76	42351.99
638.96	42550.65
639.15	42423.67
639.35	42151.29
639.55	41852.29
639.74	42249.60
639.94	42026.37
640.14	41620.87
640.34	41686.40
640.53	42001.79
640.73	41571.72
640.93	41371.02
641.12	41446.79
641.32	41280.91
641.52	41385.35
641.72	41016.72
641.91	41074.06
642.11	41049.49
642.31	40922.51
642.50	40895.89
642.70	40873.36
642.90	40594.84
643.09	40760.72
643.29	40519.06
643.49	40107.42
643.69	39867.81
643.88	40514.97
644.08	39779.74
644.28	40076.70
644.47	40039.84
644.67	40150.43
644.87	39890.34
645.06	39591.33
645.26	39966.11
645.46	39275.94
645.65	39292.33
645.85	39636.39
646.05	38956.46
646.24	39515.56
646.44	38778.29
646.64	39013.80
646.83	38596.02
647.03	38845.87
647.23	38682.03
647.42	38747.57
647.62	38567.35
647.82	38172.09
648.01	38065.60
648.21	38563.25
648.41	38139.32
648.60	38127.03
648.80	38266.30
649.00	37879.23
649.19	37748.16
649.39	37586.37
649.59	38020.54
649.78	37643.71
649.98	37342.66
650.18	37346.76
650.37	37303.75
650.57	37240.26
650.76	37088.71
650.96	37389.77
651.16	37170.63
651.35	37111.24
651.55	36943.31
651.75	36500.95
651.94	36656.59
652.14	36695.50
652.34	36412.88
652.53	36537.81
652.73	35767.77
652.92	36122.07
653.12	36210.14
653.32	35995.10
653.51	35603.94
653.71	35571.17
653.91	35587.55
654.10	35874.27
654.30	35292.65
654.49	35552.74
654.69	35628.51
654.89	35057.13
655.08	34850.28
655.28	34942.44
655.47	34825.71
655.67	34889.20
655.87	34762.22
656.06	34403.83
656.26	34305.52
656.45	34549.23
656.65	34334.20
656.85	34098.68
657.04	33629.69
657.24	34123.26
657.43	33828.35
657.63	33265.16
657.83	33533.44
658.02	33867.26
658.22	33363.46
658.41	33490.43
658.61	33183.24
658.81	33064.46
659.00	32771.60
659.20	33066.50
659.39	32704.01
659.59	32806.41
659.78	32540.18
659.98	31776.28
660.18	32556.56
660.37	32282.13
660.57	32251.41
660.76	31725.08
660.96	31835.67
661.15	31933.98
661.35	31563.29
661.54	31716.89
661.74	31501.86
661.94	31290.91
662.13	31264.29
662.33	31149.60
662.52	31047.21
662.72	30916.14
662.91	31184.42
663.11	30570.03
663.30	30522.93
663.50	30539.31
663.70	29906.49
663.89	30281.27
664.09	29881.91
664.28	29978.17
664.48	30185.01
664.67	29664.83
664.87	29443.65
665.06	29486.65
665.26	29433.41
665.45	29337.15
665.65	29079.11
665.84	29511.23
666.04	28929.61
666.24	28599.88
666.43	28597.84
666.63	28608.08
666.82	28417.61
667.02	28481.10
667.21	28335.70
667.41	28364.37
667.60	27647.58
667.80	28116.56
667.99	27922.01
668.19	27799.13
668.38	27692.63
668.58	27680.35
668.77	27078.24
668.97	26943.08
669.16	26689.13
669.36	27047.52
669.55	27033.19
669.75	26531.44
669.94	27156.07
670.14	26670.70
670.33	26426.99
670.53	26285.68
670.72	26257.01
670.92	26494.57
671.11	25986.68
671.31	26019.44
671.50	25808.50
671.70	25648.76
671.89	25507.45
672.09	25742.97
672.28	25417.34
672.48	25040.51
672.67	24878.72
672.87	24807.05
673.06	24876.68
673.26	25087.62
673.45	24731.27
673.64	24618.63
673.84	24389.26
674.03	24254.09
674.23	24096.40
674.42	23942.80
674.62	23385.76
674.81	23627.42
675.01	23338.65
675.20	23332.51
675.40	22986.40
675.59	23502.49
675.79	23162.53
675.98	23195.29
676.17	23041.70
676.37	22841.00
676.56	22611.62
676.76	22900.39
676.95	22472.36
677.15	22159.02
677.34	22619.81
677.54	22218.41
677.73	22161.07
677.92	21956.27
678.12	22019.76
678.31	22085.30
678.51	21573.30
678.70	21687.99
678.90	21632.69
679.09	21565.11
679.28	21167.80
679.48	21341.88
679.67	21089.98
679.87	20924.10
680.06	20768.45
680.26	20563.65
680.45	20836.03
680.64	20666.05
680.84	20369.10
681.03	20436.68
681.23	20016.85
681.42	20270.79
681.61	19904.21
681.81	19936.98
682.00	19527.38
682.20	19779.28
682.39	19633.88
682.59	19685.08
682.78	19461.85
682.97	19269.34
683.17	19336.92
683.36	19308.25
683.56	19195.61
683.75	18947.81
683.94	18738.91
684.14	18818.78
684.33	18712.29
684.52	18677.48
684.72	18417.38
684.91	18587.36
685.11	18261.74
685.30	18003.69
685.49	18075.37
685.69	18108.14
685.88	17762.03
686.08	17909.49
686.27	17571.57
686.46	17485.56
686.66	17655.54
686.85	17501.94
687.04	17567.48
687.24	17202.94
687.43	17012.48
687.62	16963.33
687.82	16881.41
688.01	16871.17
688.21	16721.66
688.40	16580.36
688.59	16697.09
688.79	16473.86
688.98	16432.90
689.17	16461.57
689.37	16238.34
689.56	16299.78
689.75	16033.55
689.95	16072.46
690.14	16187.14
690.33	15853.33
690.53	15955.72
690.72	15826.70
690.91	15609.62
691.11	15441.68
691.30	15449.88
691.49	15546.13
691.69	15370.01
691.88	15247.13
692.07	14911.26
692.27	15120.15
692.46	14798.62
692.65	15025.95
692.85	14757.66
693.04	14710.56
693.23	14757.66
693.43	14589.73
693.62	14210.86
693.81	14382.88
694.01	14319.40
694.20	14173.99
694.39	14411.56
694.59	14143.27
694.78	14167.85
694.97	13817.65
695.17	14178.09
695.36	13748.01
695.55	13801.26
695.74	13762.35
695.94	13707.05
696.13	13502.26
696.32	13414.20
696.52	13084.47
696.71	13369.14
696.90	13307.70
697.10	13213.49
697.29	13293.37
697.48	12814.14
697.67	12965.69
697.87	13033.27
698.06	13111.10
698.25	12795.71
698.45	12822.33
698.64	12504.90
698.83	12443.46
699.02	12543.81
699.22	12531.52
699.41	12615.49
699.60	12408.64
699.79	12461.89
699.99	12439.36
700.18	12199.75
700.37	12197.70
700.57	11827.02
700.76	12126.02
700.95	11980.62
701.14	11945.80
701.34	11724.62
701.53	11851.60
701.72	11773.77
701.91	11667.28
702.11	11550.54
702.30	11427.67
702.49	11462.48
702.68	11497.30
702.88	11218.77
703.07	11323.22
703.26	11153.24
703.45	11229.01
703.65	11208.53
703.84	11202.39
704.03	11063.13
704.22	11085.65
704.42	10889.05
704.61	11018.07
704.80	10786.65
704.99	10721.12
705.18	10825.56
705.38	10719.07
705.57	10622.81
705.76	10479.46
705.95	10659.68
706.15	10391.39
706.34	10473.31
706.53	10217.32
706.72	10153.83
706.91	10125.16
707.11	10323.81
707.30	10334.05
707.49	10198.88
707.68	10303.33
707.88	9987.94
708.07	9938.79
708.26	10030.95
708.45	9842.54
708.64	9738.09
708.84	9922.41
709.03	9967.46
709.22	9611.12
709.41	9500.53
709.60	9682.80
709.80	9500.53
709.99	9643.88
710.18	9516.91
710.37	9451.38
710.56	9424.75
710.75	9389.94
710.95	9434.99
711.14	9385.84
711.33	9281.39
711.52	9322.35
711.71	9066.36
711.91	8900.47
712.10	9047.93
712.29	8939.38
712.48	8906.62
712.67	8912.76
712.86	8667.00
713.06	8836.99
713.25	8839.03
713.44	8689.53
713.63	8732.54
713.82	8644.48
714.01	8785.79
714.21	8411.01
714.40	8615.80
714.59	8634.24
714.78	8454.02
714.97	8580.99
715.16	8294.27
715.35	8572.80
715.55	8372.10
715.74	8349.57
715.93	8218.50
716.12	8189.83
716.31	8066.95
716.50	8095.62
716.69	8198.02
716.89	8120.20
717.08	8103.81
717.27	7933.83
717.46	7829.38
717.65	8001.41
717.84	8044.42
718.03	7843.72
718.23	7827.34
718.42	7927.69
718.61	7686.03
718.80	7628.68
718.99	7741.32
719.18	7741.32
719.37	7643.02
719.56	7493.52
719.75	7710.60
719.95	7653.26
720.14	7409.55
720.33	7434.13
720.52	7581.58
720.71	7511.95
720.90	7241.62
721.09	7319.44
721.28	7477.13
721.47	7239.57
721.67	7147.41
721.86	7118.74
722.05	7128.98
722.24	6987.67
722.43	7088.02
722.62	7247.76
722.81	7141.27
723.00	7028.63
723.19	7002.01
723.38	7092.12
723.57	6928.28
723.76	6764.44
723.96	6856.60
724.15	6825.88
724.34	6924.18
724.53	6682.52
724.72	6854.55
724.91	6821.78
725.10	6643.61
725.29	6637.47
725.48	6578.08
725.67	6723.48
725.86	6596.51
726.05	6537.12
726.24	6584.22
726.43	6678.43
726.63	6625.18
726.82	6475.68
727.01	6449.05
727.20	6422.43
727.39	6399.90
727.58	6483.87
727.77	6322.08
727.96	6299.55
728.15	6358.94
728.34	6518.68
728.53	6369.18
728.72	6338.46
728.91	6166.43
729.10	6178.72
729.29	6141.86
729.48	6070.18
729.67	6068.13
729.86	6068.13
730.05	6012.84
730.24	5969.83
730.43	5943.21
730.62	6045.60
730.81	5869.48
731.00	5875.62
731.19	5920.68
731.39	5842.85
731.58	5904.29
731.77	5830.57
731.96	5744.55
732.15	5746.60
732.34	5748.65
732.53	5509.04
732.72	5633.96
732.91	5717.93
733.10	5597.10
733.29	5658.54
733.48	5656.49
733.67	5502.89
733.86	5504.94
734.05	5509.04
734.24	5324.72
734.43	5367.73
734.62	5523.37
734.81	5347.25
735.00	5296.05
735.19	5255.09
735.38	5275.57
735.57	5347.25
735.76	5236.66
735.95	5240.75
736.14	5203.89
736.33	5160.88
736.51	5074.87
736.70	5261.23
736.89	5111.73
737.08	5056.43
737.27	5081.01
737.46	5160.88
737.65	5015.48
737.84	5048.24
738.03	4972.47
738.22	5095.35
738.41	4939.70
738.60	4806.58
738.79	4911.03
738.98	4913.08
739.17	4827.06
739.36	4822.97
739.55	4853.69
739.74	4759.48
739.93	4845.49
740.12	4810.68
740.31	4700.09
740.50	4753.34
740.69	4767.67
740.88	4609.98
741.07	4536.25
741.25	4566.97
741.44	4573.11
741.63	4782.01
741.82	4495.29
742.01	4577.21
742.20	4534.20
742.39	4538.30
742.58	4499.39
742.77	4564.92
742.96	4491.20
743.15	4399.04
743.34	4396.99
743.53	4380.61
743.72	4399.04
743.90	4341.69
744.09	4407.23
744.28	4452.28
744.47	4405.18
744.66	4292.54
744.85	4390.84
745.04	4276.16
745.23	4253.63
745.42	4272.06
745.61	4177.86
745.80	4106.18
745.98	4134.85
746.17	4345.79
746.36	4196.29
746.55	4063.17
746.74	4204.48
746.93	4005.83
747.12	4085.70
747.31	4067.27
747.50	4120.51
747.69	3874.76
747.87	4097.99
748.06	4061.12
748.25	4018.11
748.44	4050.88
748.63	3925.96
748.82	3944.39
749.01	3889.09
749.20	3864.52
749.38	3848.13
749.57	3948.48
749.76	3798.98
749.95	3749.83
750.14	3776.45
750.33	3880.90
750.52	3798.98
750.70	3655.62
750.89	3702.73
751.08	3653.58
751.27	3796.93
751.46	3774.41
751.65	3815.37
751.84	3596.23
752.02	3588.04
752.21	3612.62
752.40	3506.12
752.59	3762.12
752.78	3542.99
752.97	3575.75
753.16	3565.51
753.34	3612.62
753.53	3489.74
753.72	3497.93
753.91	3467.21
754.10	3383.24
754.29	3508.17
754.47	3571.66
754.66	3420.11
754.85	3395.53
755.04	3456.97
755.23	3418.06
755.42	3604.42
755.60	3407.82
755.79	3348.43
755.98	3461.07
756.17	3358.67
756.36	3258.32
756.54	3334.09
756.73	3379.15
756.92	3217.36
757.11	3250.13
757.30	3301.33
757.48	3348.43
757.67	3274.70
757.86	3303.37
758.05	3139.54
758.24	3143.63
758.43	3235.79
758.61	3164.11
758.80	3149.78
758.99	3164.11
759.18	3200.98
759.36	3151.82
759.55	2996.18
759.74	3196.88
759.93	3133.39
760.12	3180.50
760.30	3133.39
760.49	3153.87
760.68	3010.51
760.87	3104.72
761.06	3086.29
761.24	3119.06
761.43	2965.46
761.62	3125.20
761.81	3045.33
761.99	2910.16
762.18	2996.18
762.37	2942.93
762.56	2998.23
762.74	2949.08
762.93	2875.35
763.12	3010.51
763.31	2930.64
763.49	2801.62
763.68	2981.84
763.87	2940.88
764.06	2895.83
764.24	2815.96
764.43	2904.02
764.62	2684.89
764.81	2844.63
764.99	2789.33
765.18	2801.62
765.37	2725.85
765.56	2858.96
765.74	2772.95
765.93	2834.39
766.12	2791.38
766.31	2752.47
766.49	2762.71
766.68	2641.88
766.87	2736.09
767.06	2684.89
767.24	2693.08
767.43	2598.87
767.62	2783.19
767.80	2660.31
767.99	2619.35
768.18	2562.01
768.37	2619.35
768.55	2723.80
768.74	2629.59
768.93	2641.88
769.11	2666.46
769.30	2619.35
769.49	2572.25
769.68	2621.40
769.86	2629.59
770.05	2611.16
770.24	2576.34
770.42	2549.72
770.61	2596.82
770.80	2598.87
770.98	2572.25
771.17	2525.15
771.36	2465.75
771.54	2666.46
771.73	2619.35
771.92	2490.33
772.10	2392.03
772.29	2512.86
772.48	2547.67
772.67	2443.23
772.85	2488.28
773.04	2508.76
773.23	2504.67
773.41	2420.70
773.60	2412.51
773.79	2396.12
773.97	2373.60
774.16	2383.84
774.35	2336.73
774.53	2310.11
774.72	2375.64
774.91	2351.07
775.09	2291.68
775.28	2404.32
775.47	2416.60
775.65	2328.54
775.84	2389.98
776.02	2342.88
776.21	2285.53
776.40	2353.12
776.58	2287.58
776.77	2277.34
776.96	2361.31
777.14	2265.05
777.33	2240.48
777.52	2320.35
777.70	2316.25
777.89	2230.24
778.07	2426.84
778.26	2351.07
778.45	2140.13
778.63	2342.88
778.82	2193.37
779.01	2189.28
779.19	2189.28
779.38	2328.54
779.56	2097.12
779.75	2215.90
779.94	2170.85
780.12	2232.29
780.31	2220.00
780.50	2244.57
780.68	2203.61
780.87	2062.30
781.05	2162.66
781.24	2152.42
781.43	2136.03
781.61	2111.46
781.80	2260.96
781.98	2111.46
782.17	2228.19
782.36	2191.33
782.54	2123.74
782.73	2095.07
782.91	2054.11
783.10	2121.70
783.29	2107.36
783.47	2205.66
783.66	2113.50
783.84	2056.16
784.03	2080.74
784.21	2058.21
784.40	2099.17
784.59	2060.26
784.77	2136.03
784.96	2078.69
785.14	2158.56
785.33	2113.50
785.51	2050.02
785.70	2131.94
785.89	2086.88
786.07	2023.39
786.26	2125.79
786.44	2078.69
786.63	2047.97
786.81	2007.01
787.00	1951.71
787.18	2115.55
787.37	1988.58
787.56	2027.49
787.74	2043.87
787.93	1968.10
788.11	1933.28
788.30	1916.90
788.48	2111.46
788.67	1906.66
788.85	1898.47
789.04	1990.63
789.22	2054.11
789.41	1873.89
789.60	1955.81
789.78	1892.32
789.97	1828.84
790.15	2117.60
790.34	1994.72
790.52	1955.81
790.71	1912.80
790.89	1943.52
791.08	1968.10
791.26	1927.14
791.45	1978.34
791.63	1988.58
791.82	1867.75
792.00	1972.19
792.19	2035.68
792.37	1783.78
792.56	1904.61
792.74	1918.95
792.93	1851.36
793.11	1986.53
793.30	1869.80
793.48	1923.04
793.67	1916.90
793.85	1830.88
794.04	1898.47
794.22	1869.80
794.41	1906.66
794.59	1865.70
794.78	1912.80
794.96	1837.03
795.15	1863.65
795.33	2013.15
795.52	1834.98
795.70	1920.99
795.89	1806.31
796.07	1812.45
796.26	1931.23
796.44	1890.28
796.63	1812.45
796.81	1839.08
796.99	1945.57
797.18	1851.36
797.36	1867.75
797.55	2056.16
797.73	1873.89
797.92	1853.41
798.10	1726.44
798.29	1886.18
798.47	1800.16
798.66	1834.98
798.84	1775.59
799.02	1742.82
799.21	1871.84
799.39	1882.08
799.58	1804.26
799.76	1685.48
799.95	1820.64
800.13	1816.55
800.32	1771.49
800.50	1738.73
800.68	1794.02
800.87	1822.69
801.05	1796.07
801.24	1810.40
801.42	1757.16
801.61	1800.16
801.79	1789.92
801.97	1769.44
802.16	1728.49
802.34	1769.44
802.53	1761.25
802.71	1722.34
802.90	1853.41
803.08	1701.86
803.26	1730.53
803.45	1658.85
803.63	1703.91
803.82	1763.30
804.00	1781.73
804.18	1693.67
804.37	1785.83
804.55	1771.49
804.74	1738.73
804.92	1851.36
805.10	1732.58
805.29	1816.55
805.47	1716.20
805.66	1769.44
805.84	1796.07
806.02	1753.06
806.21	1726.44
806.39	1753.06
806.57	1769.44
806.76	1730.53
806.94	1677.29
807.13	1855.46
807.31	1626.09
807.49	1658.85
807.68	1650.66
807.86	1740.77
808.04	1679.33
808.23	1669.09
808.41	1716.20
808.60	1665.00
808.78	1710.05
808.96	1701.86
809.15	1619.94
809.33	1732.58
809.51	1691.62
809.70	1632.23
809.88	1695.72
810.06	1697.77
810.25	1712.10
810.43	1665.00
810.61	1591.27
810.80	1578.98
810.98	1759.21
811.17	1800.16
811.35	1675.24
811.53	1691.62
811.72	1705.96
811.90	1658.85
812.08	1746.92
812.27	1677.29
812.45	1685.48
812.63	1654.76
812.82	1796.07
813.00	1705.96
813.18	1628.14
813.36	1646.57
813.55	1611.75
813.73	1646.57
813.91	1656.81
814.10	1701.86
814.28	1677.29
814.46	1597.42
814.65	1738.73
814.83	1759.21
815.01	1675.24
815.20	1660.90
815.38	1665.00
815.56	1628.14
815.75	1591.27
815.93	1642.47
816.11	1671.14
816.29	1654.76
816.48	1554.41
816.66	1665.00
816.84	1646.57
817.03	1689.57
817.21	1624.04
817.39	1738.73
817.57	1599.46
817.76	1613.80
817.94	1648.61
818.12	1705.96
818.31	1648.61
818.49	1667.05
818.67	1617.90
818.85	1687.53
819.04	1619.94
819.22	1599.46
819.40	1632.23
819.58	1607.66
819.77	1619.94
819.95	1658.85
820.13	1583.08
820.31	1503.21
820.50	1605.61
820.68	1667.05
820.86	1619.94
821.04	1626.09
821.23	1660.90
821.41	1519.59
821.59	1597.42
821.77	1603.56
821.96	1712.10
822.14	1601.51
822.32	1564.65
822.50	1613.80
822.69	1613.80
822.87	1531.88
823.05	1474.54
823.23	1632.23
823.42	1603.56
823.60	1570.79
823.78	1574.89
823.96	1628.14
824.15	1570.79
824.33	1540.07
824.51	1572.84
824.69	1521.64
824.87	1603.56
825.06	1587.18
825.24	1523.69
825.42	1572.84
825.60	1513.45
825.78	1648.61
825.97	1521.64
826.15	1581.03
826.33	1581.03
826.51	1570.79
826.69	1564.65
826.88	1626.09
827.06	1617.90
827.24	1572.84
827.42	1605.61
827.60	1503.21
827.79	1503.21
827.97	1583.08
828.15	1544.17
828.33	1480.68
828.51	1535.98
828.70	1527.78
828.88	1511.40
829.06	1667.05
829.24	1587.18
829.42	1497.07
829.60	1589.22
829.79	1613.80
829.97	1497.07
830.15	1538.02
830.33	1599.46
830.51	1630.18
830.69	1417.19
830.88	1593.32
831.06	1578.98
831.24	1511.40
831.42	1550.31
831.60	1542.12
831.78	1591.27
831.97	1503.21
832.15	1529.83
832.33	1466.35
832.51	1501.16
832.69	1499.11
832.87	1615.85
833.05	1482.73
833.24	1486.83
833.42	1570.79
833.60	1654.76
833.78	1486.83
833.96	1521.64
834.14	1515.50
834.32	1470.44
834.51	1558.50
834.69	1572.84
834.87	1497.07
835.05	1437.67
835.23	1609.70
835.41	1585.13
835.59	1519.59
835.77	1501.16
835.95	1535.98
836.14	1517.54
836.32	1523.69
836.50	1466.35
836.68	1527.78
836.86	1470.44
837.04	1505.26
837.22	1458.15
837.40	1413.10
837.58	1574.89
837.77	1513.45
837.95	1529.83
838.13	1595.37
838.31	1492.97
838.49	1439.72
838.67	1449.96
838.85	1462.25
839.03	1546.22
839.21	1503.21
839.39	1511.40
839.57	1525.74
839.76	1554.41
839.94	1558.50
840.12	1617.90
840.30	1415.15
840.48	1554.41
840.66	1509.35
840.84	1513.45
841.02	1566.70
841.20	1521.64
841.38	1501.16
841.56	1509.35
841.74	1529.83
841.92	1466.35
842.10	1439.72
842.28	1437.67
842.47	1466.35
842.65	1458.15
842.83	1509.35
843.01	1470.44
843.19	1542.12
843.37	1535.98
843.55	1427.43
843.73	1499.11
843.91	1503.21
844.09	1511.40
844.27	1413.10
844.45	1564.65
844.63	1497.07
844.81	1423.34
844.99	1499.11
845.17	1529.83
845.35	1490.92
845.53	1447.91
845.71	1517.54
845.89	1513.45
846.07	1449.96
846.25	1417.19
846.43	1480.68
846.61	1415.15
846.79	1449.96
846.97	1540.07
847.15	1394.67
847.33	1435.63
847.51	1480.68
847.69	1564.65
847.87	1503.21
848.05	1503.21
848.23	1468.39
848.41	1472.49
848.59	1394.67
848.77	1531.88
848.95	1497.07
849.13	1466.35
849.31	1378.28
849.49	1464.30
849.67	1478.63
849.85	1447.91
850.03	1398.76
850.21	1464.30
850.39	1386.47
850.57	1415.15
850.75	1452.01
850.93	1449.96
851.11	1411.05
851.29	1380.33
851.47	1419.24
851.65	1517.54
851.83	1423.34
852.01	1482.73
852.19	1454.06
852.37	1390.57
852.55	1382.38
852.73	1433.58
852.91	1374.19
853.09	1433.58
853.27	1406.95
853.45	1452.01
853.63	1417.19
853.81	1486.83
853.98	1392.62
854.16	1421.29
854.34	1454.06
854.52	1468.39
854.70	1503.21
854.88	1470.44
855.06	1366.00
855.24	1320.94
855.42	1441.77
855.60	1472.49
855.78	1417.19
855.96	1431.53
856.14	1439.72
856.32	1404.91
856.50	1392.62
856.67	1507.30
856.85	1519.59
857.03	1533.93
857.21	1398.76
857.39	1402.86
857.57	1404.91
857.75	1388.52
857.93	1359.85
858.11	1509.35
858.29	1380.33
858.47	1411.05
858.64	1507.30
858.82	1370.09
859.00	1398.76
859.18	1409.00
859.36	1398.76
859.54	1411.05
859.72	1378.28
859.90	1441.77
860.08	1421.29
860.26	1370.09
860.43	1404.91
860.61	1411.05
860.79	1505.26
860.97	1363.95
861.15	1476.59
861.33	1441.77
861.51	1419.24
861.69	1447.91
861.86	1409.00
862.04	1441.77
862.22	1386.47
862.40	1441.77
862.58	1392.62
862.76	1374.19
862.94	1445.87
863.11	1353.71
863.29	1366.00
863.47	1456.11
863.65	1402.86
863.83	1337.32
864.01	1415.15
864.19	1456.11
864.36	1411.05
864.54	1427.43
864.72	1413.10
864.90	1447.91
865.08	1382.38
865.26	1366.00
865.43	1490.92
865.61	1417.19
865.79	1425.39
865.97	1392.62
866.15	1392.62
866.33	1409.00
866.50	1439.72
866.68	1478.63
866.86	1517.54
867.04	1441.77
867.22	1443.82
867.40	1361.90
867.57	1431.53
867.75	1339.37
867.93	1384.43
868.11	1484.78
868.29	1454.06
868.46	1435.63
868.64	1345.52
868.82	1382.38
869.00	1376.24
869.18	1366.00
869.35	1431.53
869.53	1357.80
869.71	1353.71
869.89	1402.86
870.07	1378.28
870.24	1441.77
870.42	1396.71
870.60	1411.05
870.78	1372.14
870.96	1306.60
871.13	1447.91
871.31	1415.15
871.49	1449.96
871.67	1359.85
871.84	1374.19
872.02	1431.53
872.20	1396.71
872.38	1587.18
872.56	1437.67
872.73	1464.30
872.91	1404.91
873.09	1282.03
873.27	1431.53
873.44	1382.38
873.62	1406.95
873.80	1447.91
873.98	1480.68
874.15	1349.61
874.33	1466.35
874.51	1361.90
874.69	1404.91
874.86	1464.30
875.04	1427.43
875.22	1427.43
875.40	1376.24
875.57	1472.49
875.75	1441.77
875.93	1378.28
876.11	1372.14
876.28	1486.83
876.46	1343.47
876.64	1380.33
876.81	1384.43
876.99	1366.00
877.17	1454.06
877.35	1419.24
877.52	1460.20
877.70	1347.56
877.88	1380.33
878.05	1452.01
878.23	1449.96
878.41	1361.90
878.59	1417.19
878.76	1415.15
878.94	1409.00
879.12	1355.76
879.29	1361.90
879.47	1447.91
879.65	1355.76
879.83	1327.08
880.00	1386.47
880.18	1380.33
880.36	1368.04
880.53	1392.62
880.71	1400.81
880.89	1349.61
881.06	1433.58
881.24	1488.87
881.42	1402.86
881.59	1384.43
881.77	1267.69
881.95	1370.09
882.12	1429.48
882.30	1351.66
882.48	1357.80
882.65	1460.20
882.83	1363.95
883.01	1386.47
883.18	1404.91
883.36	1417.19
883.54	1415.15
883.71	1390.57
883.89	1452.01
884.07	1400.81
884.24	1452.01
884.42	1288.17
884.60	1464.30
884.77	1335.28
884.95	1429.48
885.13	1456.11
885.30	1374.19
885.48	1538.02
885.66	1300.46
885.83	1359.85
886.01	1366.00
886.18	1394.67
886.36	1355.76
886.54	1423.34
886.71	1415.15
886.89	1556.46
887.07	1363.95
887.24	1380.33
887.42	1466.35
887.59	1337.32
887.77	1409.00
887.95	1396.71
888.12	1361.90
888.30	1409.00
888.48	1404.91
888.65	1396.71
888.83	1386.47
889.00	1517.54
889.18	1374.19
889.36	1339.37
889.53	1421.29
889.71	1308.65
889.88	1331.18
890.06	1447.91
890.24	1439.72
890.41	1325.04
890.59	1329.13
890.76	1431.53
890.94	1366.00
891.12	1378.28
891.29	1372.14
891.47	1347.56
891.64	1374.19
891.82	1411.05
891.99	1472.49
892.17	1402.86
892.35	1376.24
892.52	1394.67
892.70	1343.47
892.87	1456.11
893.05	1447.91
893.22	1331.18
893.40	1394.67
893.58	1386.47
893.75	1380.33
893.93	1417.19
894.10	1327.08
894.28	1357.80
894.45	1355.76
894.63	1320.94
894.80	1413.10
894.98	1413.10
895.15	1329.13
895.33	1384.43
895.51	1322.99
895.68	1454.06
895.86	1361.90
896.03	1314.80
896.21	1382.38
896.38	1480.68
896.56	1322.99
896.73	1316.84
896.91	1339.37
897.08	1318.89
897.26	1304.56
897.43	1423.34
897.61	1402.86
897.78	1343.47
897.96	1378.28
898.13	1378.28
898.31	1382.38
898.48	1355.76
898.66	1398.76
898.83	1355.76
899.01	1337.32
899.19	1312.75
899.36	1486.83
899.54	1466.35
899.71	1279.98
899.89	1322.99
900.06	1409.00
900.23	1325.04
900.41	1376.24
900.58	1437.67
900.76	1284.08
900.93	1474.54
901.11	1382.38
901.28	1378.28
901.46	1443.82
901.63	1374.19
901.81	1480.68
901.98	1341.42
902.16	1335.28
902.33	1343.47
902.51	1322.99
902.68	1398.76
902.86	1318.89
903.03	1417.19
903.21	1419.24
903.38	1423.34
903.56	1384.43
903.73	1329.13
903.90	1431.53
904.08	1351.66
904.25	1380.33
904.43	1357.80
904.60	1368.04
904.78	1306.60
904.95	1366.00
905.13	1380.33
905.30	1290.22
905.47	1304.56
905.65	1540.07
905.82	1413.10
906.00	1300.46
906.17	1374.19
906.35	1347.56
906.52	1335.28
906.70	1374.19
906.87	1347.56
907.04	1245.16
907.22	1366.00
907.39	1415.15
907.57	1306.60
907.74	1325.04
907.91	1368.04
908.09	1359.85
908.26	1351.66
908.44	1433.58
908.61	1429.48
908.78	1320.94
908.96	1343.47
909.13	1394.67
909.31	1275.88
909.48	1275.88
909.66	1382.38
909.83	1415.15
910.00	1331.18
910.18	1425.39
910.35	1351.66
910.52	1372.14
910.70	1374.19
910.87	1366.00
911.05	1333.23
911.22	1292.27
911.39	1382.38
911.57	1286.12
911.74	1409.00
911.92	1380.33
912.09	1431.53
912.26	1400.81
912.44	1376.24
912.61	1435.63
912.78	1308.65
912.96	1327.08
913.13	1392.62
913.30	1419.24
913.48	1384.43
913.65	1343.47
913.83	1382.38
914.00	1390.57
914.17	1382.38
914.35	1347.56
914.52	1267.69
914.69	1320.94
914.87	1421.29
915.04	1359.85
915.21	1349.61
915.39	1421.29
915.56	1382.38
915.73	1447.91
915.91	1347.56
916.08	1327.08
916.25	1300.46
916.43	1327.08
916.60	1310.70
916.77	1390.57
916.95	1411.05
917.12	1388.52
917.29	1349.61
917.47	1228.78
917.64	1347.56
917.81	1404.91
917.98	1456.11
918.16	1288.17
918.33	1343.47
918.50	1425.39
918.68	1366.00
918.85	1361.90
919.02	1439.72
919.20	1361.90
919.37	1279.98
919.54	1415.15
919.72	1378.28
919.89	1327.08
920.06	1382.38
920.23	1355.76
920.41	1300.46
920.58	1351.66
920.75	1392.62
920.93	1316.84
921.10	1327.08
921.27	1327.08
921.44	1355.76
921.62	1271.79
921.79	1464.30
921.96	1284.08
922.13	1337.32
922.31	1392.62
922.48	1310.70
922.65	1355.76
922.82	1298.41
923.00	1435.63
923.17	1386.47
923.34	1251.31
923.52	1380.33
923.69	1370.09
923.86	1337.32
924.03	1380.33
924.21	1331.18
924.38	1411.05
924.55	1425.39
924.72	1392.62
924.89	1304.56
925.07	1400.81
925.24	1288.17
925.41	1449.96
925.58	1449.96
925.76	1300.46
925.93	1382.38
926.10	1339.37
926.27	1374.19
926.45	1363.95
926.62	1400.81
926.79	1357.80
926.96	1288.17
927.13	1347.56
927.31	1390.57
927.48	1312.75
927.65	1357.80
927.82	1261.55
927.99	1388.52
928.17	1284.08
928.34	1349.61
928.51	1284.08
928.68	1265.64
928.86	1363.95
929.03	1345.52
929.20	1279.98
929.37	1265.64
929.54	1325.04
929.71	1277.93
929.89	1472.49
930.06	1400.81
930.23	1333.23
930.40	1400.81
930.57	1302.51
930.75	1427.43
930.92	1374.19
931.09	1349.61
931.26	1353.71
931.43	1361.90
931.60	1392.62
931.78	1288.17
931.95	1255.40
932.12	1409.00
932.29	1386.47
932.46	1347.56
932.63	1353.71
932.81	1376.24
932.98	1279.98
933.15	1376.24
933.32	1359.85
933.49	1333.23
933.66	1413.10
933.83	1388.52
934.01	1343.47
934.18	1335.28
934.35	1306.60
934.52	1351.66
934.69	1409.00
934.86	1357.80
935.03	1331.18
935.21	1329.13
935.38	1339.37
935.55	1368.04
935.72	1378.28
935.89	1423.34
936.06	1388.52
936.23	1343.47
936.40	1322.99
936.58	1333.23
936.75	1378.28
936.92	1374.19
937.09	1255.40
937.26	1341.42
937.43	1294.32
937.60	1347.56
937.77	1320.94
937.94	1368.04
938.12	1359.85
938.29	1429.48
938.46	1359.85
938.63	1363.95
938.80	1316.84
938.97	1425.39
939.14	1361.90
939.31	1413.10
939.48	1322.99
939.65	1306.60
939.82	1411.05
940.00	1359.85
940.17	1490.92
940.34	1376.24
940.51	1337.32
940.68	1378.28
940.85	1310.70
941.02	1325.04
941.19	1466.35
941.36	1320.94
941.53	1378.28
941.70	1329.13
941.87	1378.28
942.04	1269.74
942.21	1306.60
942.38	1298.41
942.55	1312.75
942.73	1341.42
942.90	1388.52
943.07	1372.14
943.24	1341.42
943.41	1390.57
943.58	1380.33
943.75	1361.90
943.92	1296.36
944.09	1368.04
944.26	1341.42
944.43	1347.56
944.60	1341.42
944.77	1302.51
944.94	1257.45
945.11	1304.56
945.28	1359.85
945.45	1327.08
945.62	1351.66
945.79	1304.56
945.96	1351.66
946.13	1271.79
946.30	1677.29
946.47	1351.66
946.64	1279.98
946.81	1359.85
946.98	1355.76
947.15	1386.47
947.32	1413.10
947.49	1310.70
947.66	1411.05
947.83	1304.56
948.00	1316.84
948.17	1234.93
948.34	1310.70
948.51	1251.31
948.68	1308.65
948.85	1382.38
949.02	1382.38
949.19	1404.91
949.36	1370.09
949.53	1380.33
949.70	1382.38
949.87	1456.11
950.04	1372.14
950.21	1400.81
950.38	1275.88
950.55	1390.57
950.72	1357.80
950.89	1349.61
951.06	1359.85
951.23	1327.08
951.40	1394.67
951.57	1279.98
951.74	1392.62
951.91	1349.61
952.08	1277.93
952.24	1298.41
952.41	1337.32
952.58	1337.32
952.75	1343.47
952.92	1255.40
953.09	1325.04
953.26	1333.23
953.43	1363.95
953.60	1359.85
953.77	1310.70
953.94	1392.62
954.11	1386.47
954.28	1366.00
954.45	1464.30
954.62	1316.84
954.78	1294.32
954.95	1308.65
955.12	1361.90
955.29	1427.43
955.46	1382.38
955.63	1322.99
955.80	1398.76
955.97	1413.10
956.14	1288.17
956.31	1310.70
956.48	1402.86
956.64	1347.56
956.81	1382.38
956.98	1378.28
957.15	1378.28
957.32	1325.04
957.49	1366.00
957.66	1349.61
957.83	1327.08
958.00	1296.36
958.16	1345.52
958.33	1372.14
958.50	1306.60
958.67	1314.80
958.84	1343.47
959.01	1228.78
959.18	1298.41
959.35	1351.66
959.52	1337.32
959.68	1353.71
959.85	1380.33
960.02	1304.56
960.19	1347.56
960.36	1419.24
960.53	1312.75
960.70	1392.62
960.86	1308.65
961.03	1384.43
961.20	1337.32
961.37	1368.04
961.54	1366.00
961.71	1386.47
961.87	1300.46
962.04	1353.71
962.21	1343.47
962.38	1363.95
962.55	1320.94
962.72	1286.12
962.88	1404.91
963.05	1239.02
963.22	1308.65
963.39	1380.33
963.56	1349.61
963.73	1353.71
963.89	1396.71
964.06	1269.74
964.23	1331.18
964.40	1318.89
964.57	1275.88
964.74	1325.04
964.90	1353.71
965.07	1251.31
965.24	1394.67
965.41	1282.03
965.58	1286.12
965.74	1318.89
965.91	1335.28
966.08	1243.12
966.25	1327.08
966.42	1343.47
966.58	1357.80
966.75	1423.34
966.92	1294.32
967.09	1413.10
967.25	1355.76
967.42	1390.57
967.59	1384.43
967.76	1300.46
967.93	1382.38
968.09	1380.33
968.26	1404.91
968.43	1269.74
968.60	1368.04
968.76	1267.69
968.93	1376.24
969.10	1343.47
969.27	1409.00
969.43	1337.32
969.60	1333.23
969.77	1302.51
969.94	1308.65
970.10	1318.89
970.27	1312.75
970.44	1300.46
970.61	1300.46
970.77	1310.70
970.94	1288.17
971.11	1304.56
971.28	1353.71
971.44	1462.25
971.61	1318.89
971.78	1368.04
971.95	1374.19
972.11	1335.28
972.28	1357.80
972.45	1333.23
972.62	1390.57
972.78	1359.85
972.95	1333.23
973.12	1390.57
973.28	1232.88
973.45	1322.99
973.62	1366.00
973.79	1302.51
973.95	1386.47
974.12	1384.43
974.29	1392.62
974.45	1333.23
974.62	1355.76
974.79	1316.84
974.95	1468.39
975.12	1347.56
975.29	1306.60
975.46	1370.09
975.62	1378.28
975.79	1294.32
975.96	1331.18
976.12	1325.04
976.29	1425.39
976.46	1368.04
976.62	1282.03
976.79	1404.91
976.96	1339.37
977.12	1261.55
977.29	1398.76
977.46	1361.90
977.62	1275.88
977.79	1341.42
977.96	1349.61
978.12	1335.28
978.29	1333.23
978.46	1347.56
978.62	1437.67
978.79	1314.80
978.96	1359.85
979.12	1277.93
979.29	1255.40
979.46	1366.00
979.62	1302.51
979.79	1339.37
979.96	1339.37
980.12	1327.08
980.29	1316.84
980.45	1409.00
980.62	1331.18
980.79	1333.23
980.95	1302.51
981.12	1345.52
981.29	1312.75
981.45	1382.38
981.62	1349.61
981.78	1384.43
981.95	1275.88
982.12	1409.00
982.28	1292.27
982.45	1374.19
982.62	1267.69
982.78	1355.76
982.95	1290.22
983.11	1286.12
983.28	1351.66
983.45	1388.52
983.61	1366.00
983.78	1290.22
983.94	1396.71
984.11	1331.18
984.28	1331.18
984.44	1366.00
984.61	1331.18
984.77	1337.32
984.94	1290.22
985.10	1425.39
985.27	1275.88
985.44	1382.38
985.60	1353.71
985.77	1296.36
985.93	1404.91
986.10	1363.95
986.26	1282.03
986.43	1320.94
986.60	1454.06
986.76	1431.53
986.93	1368.04
987.09	1447.91
987.26	1351.66
987.42	1341.42
987.59	1284.08
987.76	1421.29
987.92	1327.08
988.09	1273.84
988.25	1300.46
988.42	1318.89
988.58	1314.80
988.75	1427.43
988.91	1290.22
989.08	1292.27
989.24	1298.41
989.41	1398.76
989.57	1411.05
989.74	1378.28
989.91	1347.56
990.07	1243.12
990.24	1314.80
990.40	1368.04
990.57	1376.24
990.73	1325.04
990.90	1322.99
991.06	1329.13
991.23	1329.13
991.39	1406.95
991.56	1271.79
991.72	1306.60
991.89	1374.19
992.05	1355.76
992.22	1257.45
992.38	1325.04
992.55	1273.84
992.71	1417.19
992.88	1310.70
993.04	1335.28
993.21	1306.60
993.37	1359.85
993.54	1300.46
993.70	1300.46
993.87	1327.08
994.03	1349.61
994.20	1388.52
994.36	1255.40
994.53	1409.00
994.69	1327.08
994.85	1304.56
995.02	1212.40
995.18	1392.62
995.35	1415.15
995.51	1325.04
995.68	1406.95
995.84	1396.71
996.01	1322.99
996.17	1316.84
996.34	1349.61
996.50	1216.49
996.67	1269.74
996.83	1320.94
996.99	1245.16
997.16	1441.77
997.32	1284.08
997.49	1318.89
997.65	1314.80
997.82	1335.28
997.98	1347.56
998.14	1314.80
998.31	1325.04
998.47	1347.56
998.64	1359.85
998.80	1290.22
998.97	1263.60
999.13	1372.14
999.29	1337.32
999.46	1353.71
999.62	1282.03
999.79	1411.05
999.95	1372.14
1000.12	1306.60
1000.28	1415.15
1000.44	1273.84
1000.61	1263.60
1000.77	1325.04
1000.94	1413.10
1001.10	1404.91
1001.26	1390.57
1001.43	1310.70
1001.59	1273.84
1001.75	1325.04
1001.92	1333.23
1002.08	1327.08
1002.25	1333.23
1002.41	1368.04
1002.57	1378.28
1002.74	1347.56
1002.90	1322.99
1003.07	1300.46
1003.23	1331.18
1003.39	1312.75
1003.56	1386.47
1003.72	1273.84
1003.88	1322.99
1004.05	1327.08
1004.21	1388.52
1004.37	1347.56
1004.54	1388.52
1004.70	1468.39
1004.87	1382.38
1005.03	1253.36
1005.19	1314.80
1005.36	1415.15
1005.52	1292.27
1005.68	1288.17
1005.85	1290.22
1006.01	1396.71
1006.17	1343.47
1006.34	1347.56
1006.50	1255.40
1006.66	1445.87
1006.83	1339.37
1006.99	1380.33
1007.15	1296.36
1007.32	1380.33
1007.48	1279.98
1007.64	1386.47
1007.81	1275.88
1007.97	1228.78
1008.13	1355.76
1008.30	1361.90
1008.46	1310.70
1008.62	1361.90
1008.78	1320.94
1008.95	1286.12
1009.11	1294.32
1009.27	1372.14
1009.44	1357.80
1009.60	1341.42
1009.76	1343.47
1009.93	1279.98
1010.09	1433.58
1010.25	1296.36
1010.41	1359.85
1010.58	1392.62
1010.74	1345.52
1010.90	1275.88
1011.07	1355.76
1011.23	1257.45
1011.39	1343.47
1011.55	1294.32
1011.72	1331.18
1011.88	1368.04
1012.04	1349.61
1012.20	1316.84
1012.37	1384.43
1012.53	1302.51
1012.69	1394.67
1012.86	1282.03
1013.02	1335.28
1013.18	1288.17
1013.34	1337.32
1013.51	1378.28
1013.67	1325.04
1013.83	1277.93
1013.99	1378.28
1014.16	1345.52
1014.32	1384.43
1014.48	1337.32
1014.64	1366.00
1014.80	1337.32
1014.97	1409.00
1015.13	1243.12
1015.29	1259.50
1015.45	1427.43
1015.62	1374.19
1015.78	1329.13
1015.94	1402.86
1016.10	1292.27
1016.27	1284.08
1016.43	1312.75
1016.59	1341.42
1016.75	1306.60
1016.91	1316.84
1017.08	1316.84
1017.24	1339.37
1017.40	1279.98
1017.56	1310.70
1017.72	1261.55
1017.89	1458.15
1018.05	1325.04
1018.21	1335.28
1018.37	1353.71
1018.53	1357.80
1018.70	1363.95
1018.86	1290.22
1019.02	1284.08
1019.18	1406.95
1019.34	1382.38
1019.50	1279.98
1019.67	1339.37
1019.83	1302.51
1019.99	1443.82
1020.15	1298.41
1020.31	1261.55
1020.48	1331.18
1020.64	1347.56
1020.80	1374.19
1020.96	1282.03
1021.12	1368.04
1021.28	1345.52
1021.44	1261.55
1021.61	1392.62
1021.77	1413.10
1021.93	1366.00
1022.09	1286.12
1022.25	1325.04
1022.41	1353.71
1022.58	1232.88
1022.74	1279.98
1022.90	1347.56
1023.06	1327.08
1023.22	1239.02
1023.38	1325.04
1023.54	1409.00
1023.70	1355.76
1023.87	1390.57
1024.03	1322.99
1024.19	1400.81
1024.35	1347.56
1024.51	1335.28
1024.67	1294.32
1024.83	1306.60
1024.99	1415.15
1025.16	1353.71
1025.32	1363.95
1025.48	1255.40
1025.64	1236.97
1025.80	1386.47
1025.96	1294.32
1026.12	1374.19
1026.28	1353.71
1026.44	1363.95
1026.60	1400.81
1026.77	1339.37
1026.93	1312.75
1027.09	1320.94
1027.25	1439.72
1027.41	1322.99
1027.57	1343.47
1027.73	1327.08
1027.89	1286.12
1028.05	1417.19
1028.21	1290.22
1028.37	1353.71
1028.53	1409.00
1028.70	1359.85
1028.86	1392.62
1029.02	1355.76
1029.18	1339.37
1029.34	1374.19
1029.50	1396.71
1029.66	1292.27
1029.82	1427.43
1029.98	1308.65
1030.14	1396.71
1030.30	1310.70
1030.46	1325.04
1030.62	1394.67
1030.78	1308.65
1030.94	1361.90
1031.10	1380.33
1031.26	1277.93
1031.42	1318.89
1031.58	1370.09
1031.74	1435.63
1031.90	1378.28
1032.07	1345.52
1032.23	1404.91
1032.39	1402.86
1032.55	1261.55
1032.71	1372.14
1032.87	1312.75
1033.03	1386.47
1033.19	1331.18
1033.35	1366.00
1033.51	1345.52
1033.67	1290.22
1033.83	1339.37
1033.99	1386.47
1034.15	1357.80
1034.31	1312.75
1034.47	1339.37
1034.63	1415.15
1034.79	1433.58
1034.95	1320.94
1035.11	1318.89
1035.27	1384.43
1035.43	1269.74
1035.59	1396.71
1035.75	1431.53
1035.91	1308.65
1036.07	1413.10
1036.23	1378.28
1036.39	1376.24
1036.54	1200.11
1036.70	1368.04
1036.86	1421.29
1037.02	1370.09
1037.18	1335.28
1037.34	1419.24
1037.50	1343.47
1037.66	1308.65
1037.82	1384.43
1037.98	1417.19
1038.14	1341.42
1038.30	1355.76
1038.46	1288.17
1038.62	1366.00